time,GPS_lat,GPS_long,accelx,accely,accelz
1552637024.655734,0,0,0.054612,-0.016997,0.080564
1552637024.673316,0,0,0.057801,-0.019113,0.080018
1552637024.691002,0,0,0.058518,-0.018941,0.079769
1552637024.715189,0,0,0.057777,-0.018941,0.079024
1552637024.732862,0,0,0.056219,-0.018153,0.079048
1552637024.755678,0,0,0.055502,-0.018129,0.079347
1552637024.800747,0,0,0.056343,-0.018818,0.079396
1552637024.821311,0,0,0.055428,-0.018867,0.078999
1552637024.838991,0,0,0.055403,-0.018399,0.078725
1552637024.856789,0,0,0.055527,-0.018621,0.078874
1552637024.874403,0,0,0.055997,-0.018965,0.079570
1552637024.891808,0,0,0.056442,-0.019137,0.079694
1552637024.910776,0,0,0.056813,-0.018768,0.079595
1552637024.946947,0,0,0.056318,-0.018719,0.079421
1552637024.965817,0,0,0.055972,-0.019211,0.079521
1552637024.994341,0,0,0.056763,-0.019285,0.079222
1552637025.013314,0,0,0.056368,-0.018891,0.079247
1552637025.036064,0,0,0.056145,-0.018719,0.079471
1552637025.054997,0,0,0.055576,-0.018916,0.079098
1552637025.072933,0,0,0.055478,-0.018473,0.079098
1552637025.109077,0,0,0.055379,-0.018153,0.079197
1552637025.147312,0,0,0.056120,-0.018645,0.080589
1552637025.164820,0,0,0.056120,-0.018547,0.080564
1552637025.182248,0,0,0.056170,-0.018276,0.080117
1552637025.199707,0,0,0.055749,-0.024844,0.078974
1552637025.217195,0,0,0.056219,-0.019088,0.079024
1552637025.234708,0,0,0.056318,-0.018842,0.079620
1552637025.253346,0,0,0.055527,-0.012840,0.079545
1552637025.289777,0,0,0.054884,-0.018867,0.079694
1552637025.324978,0,0,0.054538,-0.018941,0.079496
1552637025.342366,0,0,0.054143,-0.019064,0.079197
1552637025.359616,0,0,0.054241,-0.018941,0.079073
1552637025.376973,0,0,0.055008,-0.019211,0.079371
1552637025.394334,0,0,0.055651,-0.019359,0.079645
1552637025.411919,0,0,0.056343,-0.019654,0.079595
1552637025.431943,0,0,0.056145,-0.019752,0.079347
1552637025.467202,0,0,0.055923,-0.019629,0.079446
1552637025.484972,0,0,0.055280,-0.018965,0.079521
1552637025.502583,0,0,0.054934,-0.018842,0.079222
1552637025.520115,0,0,0.055700,-0.019039,0.079993
1552637025.537589,0,0,0.055848,-0.019457,0.080539
1552637025.554977,0,0,0.055675,-0.013012,0.081608
1552637025.574732,0,0,0.056194,-0.012668,0.081409
1552637025.610016,0,0,0.056096,-0.019334,0.080216
1552637025.627673,0,0,0.054736,-0.019457,0.079744
1552637025.645637,0,0,0.053549,-0.019629,0.079297
1552637025.663288,0,0,0.052560,-0.019802,0.078800
1552637025.680812,0,0,0.051646,-0.019310,0.078874
1552637025.704792,0,0,0.050879,-0.018965,0.079521
1552637025.724521,0,0,0.050508,-0.019137,0.080291
1552637025.772834,0,0,0.056788,-0.018645,0.081086
1552637025.812593,0,0,0.051299,-0.018547,0.082279
1552637025.837432,0,0,0.050830,-0.017539,0.082801
1552637025.857598,0,0,0.049519,-0.016456,0.082478
1552637025.877032,0,0,0.049594,-0.016235,0.081608
1552637025.898872,0,0,0.056911,-0.017293,0.080490
1552637025.926954,0,0,0.052214,-0.017735,0.080018
1552637025.964845,0,0,0.050236,-0.017145,0.079173
1552637025.984571,0,0,0.050088,-0.016678,0.079570
1552637026.014185,0,0,0.052362,-0.017932,0.082353
1552637026.034461,0,0,0.053920,-0.019187,0.083198
1552637026.052695,0,0,0.054835,-0.019064,0.083745
1552637026.072045,0,0,0.053648,-0.017760,0.084764
1552637026.090790,0,0,0.052313,-0.016505,0.088044
1552637026.118211,0,0,0.051423,-0.017784,0.088740
1552637026.160436,0,0,0.050137,-0.018793,0.083472
1552637026.178512,0,0,0.045663,-0.017760,0.082701
1552637026.197157,0,0,0.043883,-0.016973,0.082602
1552637026.219233,0,0,0.042498,-0.017194,0.082279
1552637026.242624,0,0,0.041806,-0.018252,0.080390
1552637026.263123,0,0,0.041460,-0.018891,0.077905
1552637026.304739,0,0,0.041311,-0.018768,0.078228
1552637026.348752,0,0,0.043759,-0.016628,0.082030
1552637026.373424,0,0,0.040595,-0.014710,0.080465
1552637026.392986,0,0,0.034982,-0.015325,0.079024
1552637026.419449,0,0,0.031497,-0.016653,0.079347
1552637026.438765,0,0,0.028208,-0.018153,0.084093
1552637026.460907,0,0,0.026676,-0.021622,0.088144
1552637026.501168,0,0,0.023857,-0.027107,0.084317
1552637026.540577,0,0,0.025415,-0.043121,0.093635
1552637026.565260,0,0,0.027492,-0.036873,0.097437
1552637026.584121,0,0,0.022102,-0.033675,0.102631
1552637026.602423,0,0,0.018418,-0.031363,0.103054
1552637026.621408,0,0,0.021336,-0.030477,0.107104
1552637026.640363,0,0,0.012880,-0.028977,0.109142
1552637026.663782,0,0,0.015377,-0.024672,0.100295
1552637026.710398,0,0,0.015773,-0.018941,0.096170
1552637026.739619,0,0,0.013993,-0.026517,0.101041
1552637026.761411,0,0,0.026577,-0.026000,0.108098
1552637026.782520,0,0,0.046058,-0.021794,0.130463
1552637026.804171,0,0,0.055997,-0.022015,0.138092
1552637026.833109,0,0,0.060496,-0.026443,0.136154
1552637026.881735,0,0,0.043462,-0.027329,0.103377
1552637026.913781,0,0,0.029420,-0.026049,0.099599
1552637026.943723,0,0,0.030532,-0.015915,0.107899
1552637026.962372,0,0,0.019753,-0.005510,0.102482
1552637026.980082,0,0,0.014067,-0.009101,0.098928
1552637027.002866,0,0,0.011545,-0.005781,0.096866
1552637027.039895,0,0,0.008307,-0.002288,0.097984
1552637027.062612,0,0,0.012337,-0.008437,0.086081
1552637027.086343,0,0,0.009172,-0.017170,0.071618
1552637027.105148,0,0,0.004326,-0.025681,0.068686
1552637027.124500,0,0,0.001731,-0.027058,0.070077
1552637027.146207,0,0,0.001063,-0.026837,0.072612
1552637027.187863,0,0,-0.000403,-0.026861,0.069655
1552637027.205725,0,0,-0.001737,-0.027156,0.068040
1552637027.233206,0,0,-0.003046,-0.023713,0.069183
1552637027.252022,0,0,-0.001057,-0.021548,0.070848
1552637027.275027,0,0,0.002843,-0.016358,0.068512
1552637027.295329,0,0,0.001706,-0.018547,0.073929
1552637027.319216,0,0,0.000124,-0.021474,0.083074
1552637027.370457,0,0,0.014957,-0.015940,0.091647
1552637027.418759,0,0,0.015303,-0.018227,0.097164
1552637027.443664,0,0,0.014413,-0.020933,0.096717
1552637027.461271,0,0,0.017751,-0.034610,0.103526
1552637027.489568,0,0,0.007516,-0.060758,0.101066
1552637027.515825,0,0,0.034686,-0.029616,0.129743
1552637027.582534,0,0,0.021360,-0.013406,0.138068
1552637027.618978,0,0,0.002967,-0.015792,0.114186
1552637027.638617,0,0,0.002200,-0.022335,0.106905
1552637027.658376,0,0,0.006823,-0.028731,0.094008
1552637027.678583,0,0,0.010730,-0.033552,0.084565
1552637027.698240,0,0,0.008925,-0.029444,0.077930
1552637027.745656,0,0,-0.003876,-0.047770,0.075868
1552637027.783324,0,0,0.001384,-0.022015,0.082627
1552637027.807921,0,0,0.000692,-0.027771,0.079769
1552637027.842470,0,0,0.004351,-0.026222,0.086677
1552637027.862344,0,0,0.005736,-0.021007,0.094729
1552637027.880846,0,0,-0.003322,-0.014513,0.102109
1552637027.901201,0,0,-0.011402,-0.011192,0.113416
1552637027.937872,0,0,-0.017242,-0.002878,0.098605
1552637027.973864,0,0,-0.032319,0.003169,0.098581
1552637027.992673,0,0,-0.056834,0.025550,0.104346
1552637028.011079,0,0,-0.066072,0.033448,0.095648
1552637028.029629,0,0,-0.068916,0.037706,0.094207
1552637028.048049,0,0,-0.067381,0.040256,0.086851
1552637028.066413,0,0,-0.068111,0.041890,0.077955
1552637028.085352,0,0,-0.071106,0.044020,0.073308
1552637028.131011,0,0,-0.075284,0.055408,0.084441
1552637028.149221,0,0,-0.078833,0.061474,0.101289
1552637028.168083,0,0,-0.070602,0.062539,0.102681
1552637028.186844,0,0,-0.063656,0.064470,0.101612
1552637028.204908,0,0,-0.059981,0.064693,0.095971
1552637028.227992,0,0,-0.051800,0.068951,0.091871
1552637028.269881,0,0,-0.058244,0.071526,0.076588
1552637028.306448,0,0,-0.052807,0.075314,0.049974
1552637028.326221,0,0,-0.048251,0.071699,0.039487
1552637028.347419,0,0,-0.047320,0.066921,0.028826
1552637028.366114,0,0,-0.044677,0.064346,0.023160
1552637028.392446,0,0,-0.042110,0.062563,0.020327
1552637028.411005,0,0,-0.041934,0.062167,0.015705
1552637028.448101,0,0,-0.041808,0.061251,0.013320
1552637028.484560,0,0,-0.057690,0.066549,0.015730
1552637028.503622,0,0,-0.061818,0.072343,0.019259
1552637028.522293,0,0,-0.065770,0.073927,0.013046
1552637028.541384,0,0,-0.070930,0.073085,0.018613
1552637028.559973,0,0,-0.074328,0.072764,0.021620
1552637028.578715,0,0,-0.075133,0.072244,0.023384
1552637028.621384,0,0,-0.075687,0.070981,0.023608
1552637028.659638,0,0,-0.075007,0.069991,0.021595
1552637028.678741,0,0,-0.075058,0.071105,0.021048
1552637028.698205,0,0,-0.075712,0.071922,0.022216
1552637028.717099,0,0,-0.075183,0.075660,0.025447
1552637028.739237,0,0,-0.073547,0.078433,0.027584
1552637028.757681,0,0,-0.071332,0.081132,0.030740
1552637028.795176,0,0,-0.070401,0.076230,0.030938
1552637028.832105,0,0,-0.070401,0.091456,0.051390
1552637028.850562,0,0,-0.065921,0.095789,0.059988
1552637028.869277,0,0,-0.064134,0.094278,0.061454
1552637028.888012,0,0,-0.061088,0.083509,0.061529
1552637028.907009,0,0,-0.053889,0.083038,0.061256
1552637028.925707,0,0,-0.048704,0.079225,0.061007
1552637028.944973,0,0,-0.051725,0.075462,0.057354
1552637028.989823,0,0,-0.067507,0.068629,0.044109
1552637029.007722,0,0,-0.066298,0.064395,0.041624
1552637029.025457,0,0,-0.064159,0.059097,0.039860
1552637029.043201,0,0,-0.060836,0.045926,0.037946
1552637029.060900,0,0,-0.055953,0.039241,0.037449
1552637029.079655,0,0,-0.051977,0.040801,0.037275
1552637029.102665,0,0,-0.049988,0.036468,0.037872
1552637029.138940,0,0,-0.049157,0.042336,0.038269
1552637029.174181,0,0,-0.052203,0.040306,0.032678
1552637029.191659,0,0,-0.063429,0.047981,0.032653
1552637029.208976,0,0,-0.071056,0.047832,0.030168
1552637029.226274,0,0,-0.076241,0.049169,0.032554
1552637029.243569,0,0,-0.079538,0.053180,0.040058
1552637029.260829,0,0,-0.083137,0.059691,0.048880
1552637029.279805,0,0,-0.090210,0.067069,0.055217
1552637029.314896,0,0,-0.098390,0.072665,0.058472
1552637029.332590,0,0,-0.102619,0.074051,0.061703
1552637029.349892,0,0,-0.099372,0.069644,0.061107
1552637029.367180,0,0,-0.093809,0.064371,0.059640
1552637029.384461,0,0,-0.087391,0.059592,0.057752
1552637029.402049,0,0,-0.077524,0.057463,0.057379
1552637029.428968,0,0,-0.080369,0.058478,0.061554
1552637029.469084,0,0,-0.079311,0.062563,0.082900
1552637029.502793,0,0,-0.069722,0.069916,0.091424
1552637029.521610,0,0,-0.065770,0.076106,0.087522
1552637029.547992,0,0,-0.060987,0.074348,0.078452
1552637029.566885,0,0,-0.059301,0.071006,0.072637
1552637029.585097,0,0,-0.057438,0.068406,0.066499
1552637029.603781,0,0,-0.056532,0.064891,0.053602
1552637029.623205,0,0,-0.055173,0.060806,0.049874
1552637029.671589,0,0,-0.045810,0.047288,0.038642
1552637029.690356,0,0,-0.047496,0.044490,0.036579
1552637029.709633,0,0,-0.045961,0.045010,0.034765
1552637029.728790,0,0,-0.047270,0.048179,0.031212
1552637029.746777,0,0,-0.051725,0.052858,0.026838
1552637029.764996,0,0,-0.055551,0.055730,0.025422
1552637029.785069,0,0,-0.059754,0.058280,0.024999
1552637029.830248,0,0,-0.062724,0.065485,0.024527
1552637029.848538,0,0,-0.065644,0.074918,0.021098
1552637029.867280,0,0,-0.067053,0.070511,0.017668
1552637029.886599,0,0,-0.068992,0.071278,0.015581
1552637029.904371,0,0,-0.069117,0.072343,0.018116
1552637029.928390,0,0,-0.067456,0.076056,0.020899
1552637029.946877,0,0,-0.067104,0.078235,0.020899
1552637029.984650,0,0,-0.068362,0.080835,0.020576
1552637030.020305,0,0,-0.060484,0.085390,0.035238
1552637030.038824,0,0,-0.062170,0.086579,0.037002
1552637030.056633,0,0,-0.059880,0.087371,0.036977
1552637030.076166,0,0,-0.058898,0.092124,0.043537
1552637030.095532,0,0,-0.057866,0.098537,0.056460
1552637030.112900,0,0,-0.056910,0.102845,0.071171
1552637030.130398,0,0,-0.059049,0.104305,0.078551
1552637030.179588,0,0,-0.053613,0.088757,0.064760
1552637030.197013,0,0,-0.047068,0.080909,0.061082
1552637030.214289,0,0,-0.044199,0.072714,0.057379
1552637030.231807,0,0,-0.043721,0.066500,0.053900
1552637030.249083,0,0,-0.045130,0.064272,0.052657
1552637030.266332,0,0,-0.056029,0.063232,0.050197
1552637030.285798,0,0,-0.062246,0.062464,0.045824
1552637030.320818,0,0,-0.061692,0.055804,0.038220
1552637030.338464,0,0,-0.059553,0.050952,0.035610
1552637030.355627,0,0,-0.057438,0.045852,0.033573
1552637030.372870,0,0,-0.056860,0.042906,0.033747
1552637030.390355,0,0,-0.057741,0.041346,0.034169
1552637030.407624,0,0,-0.059905,0.041247,0.035238
1552637030.426240,0,0,-0.063454,0.042806,0.037747
1552637030.443914,0,0,-0.065896,0.044614,0.040655
1552637030.471638,0,0,-0.068815,0.048996,0.047414
1552637030.488902,0,0,-0.073321,0.051026,0.048358
1552637030.506168,0,0,-0.077398,0.052487,0.050222
1552637030.523781,0,0,-0.079764,0.053799,0.053254
1552637030.541713,0,0,-0.083238,0.063034,0.058174
1552637030.561124,0,0,-0.085503,0.060236,0.063741
1552637030.596807,0,0,-0.086661,0.065287,0.068363
1552637030.614163,0,0,-0.092727,0.067218,0.066101
1552637030.641716,0,0,-0.089782,0.065039,0.061281
1552637030.658996,0,0,-0.088071,0.061053,0.058298
1552637030.676264,0,0,-0.084799,0.056027,0.058969
1552637030.693553,0,0,-0.078758,0.051719,0.063691
1552637030.711065,0,0,-0.074806,0.049466,0.071842
1552637030.729325,0,0,-0.070678,0.050283,0.086031
1552637030.764573,0,0,-0.067834,0.052165,0.085037
1552637030.799569,0,0,-0.065065,0.064866,0.093536
1552637030.817888,0,0,-0.067960,0.071749,0.094878
1552637030.835754,0,0,-0.071710,0.082295,0.093611
1552637030.853401,0,0,-0.073799,0.070362,0.087497
1552637030.871610,0,0,-0.072088,0.068852,0.078005
1552637030.889457,0,0,-0.065770,0.060187,0.067816
1552637030.911854,0,0,-0.057665,0.051472,0.058050
1552637030.949514,0,0,-0.046917,0.034339,0.035337
1552637030.967509,0,0,-0.040499,0.032037,0.029944
1552637030.985352,0,0,-0.040751,0.031715,0.027559
1552637031.003309,0,0,-0.042513,0.034661,0.027459
1552637031.021718,0,0,-0.050844,0.037558,0.026465
1552637031.039968,0,0,-0.057036,0.042014,0.026664
1552637031.058959,0,0,-0.062699,0.044985,0.027310
1552637031.097196,0,0,-0.066953,0.048674,0.029845
1552637031.136508,0,0,-0.073296,0.054344,0.032827
1552637031.154694,0,0,-0.076090,0.055755,0.033274
1552637031.172641,0,0,-0.077575,0.058429,0.036107
1552637031.190549,0,0,-0.079009,0.068357,0.039015
1552637031.208518,0,0,-0.079840,0.066797,0.043016
1552637031.226418,0,0,-0.079488,0.073308,0.045849
1552637031.276376,0,0,-0.080293,0.073630,0.045352
1552637031.294314,0,0,-0.071509,0.072689,0.045724
1552637031.312126,0,0,-0.065594,0.081701,0.052334
1552637031.330050,0,0,-0.065090,0.080736,0.064039
1552637031.347934,0,0,-0.066173,0.083731,0.077657
1552637031.365782,0,0,-0.067758,0.083806,0.083323
1552637031.395580,0,0,-0.059880,0.077938,0.079247
1552637031.431095,0,0,-0.047974,0.064247,0.066897
1552637031.449058,0,0,-0.047798,0.063529,0.067095
1552637031.466708,0,0,-0.051826,0.065163,0.065356
1552637031.484661,0,0,-0.056608,0.066970,0.060610
1552637031.502547,0,0,-0.059402,0.067168,0.053229
1552637031.520474,0,0,-0.062397,0.062440,0.045600
1552637031.552476,0,0,-0.062145,0.058082,0.040729
1552637031.582286,0,0,-0.055651,0.046223,0.035287
1552637031.600330,0,0,-0.054116,0.042881,0.034268
1552637031.618330,0,0,-0.054443,0.041767,0.034616
1552637031.636328,0,0,-0.057237,0.042113,0.036878
1552637031.654254,0,0,-0.060182,0.043524,0.038866
1552637031.672098,0,0,-0.062271,0.045431,0.040953
1552637031.718417,0,0,-0.066198,0.054765,0.048035
1552637031.754077,0,0,-0.072541,0.056151,0.047986
1552637031.772104,0,0,-0.076064,0.058874,0.051067
1552637031.789994,0,0,-0.078808,0.060063,0.053776
1552637031.807892,0,0,-0.081325,0.061944,0.056708
1552637031.825839,0,0,-0.084144,0.063133,0.059268
1552637031.843714,0,0,-0.088020,0.063851,0.061007
1552637031.886045,0,0,-0.089178,0.062266,0.061454
1552637031.903773,0,0,-0.090185,0.056770,0.065281
1552637031.932282,0,0,-0.086510,0.058850,0.085733
1552637031.950198,0,0,-0.084496,0.060954,0.094754
1552637031.968514,0,0,-0.082533,0.063133,0.092542
1552637031.986424,0,0,-0.080243,0.063009,0.088317
1552637032.004511,0,0,-0.075234,0.059320,0.082279
1552637032.046472,0,0,-0.066298,0.052016,0.076638
1552637032.064718,0,0,-0.059049,0.052413,0.078651
1552637032.092396,0,0,-0.063253,0.061573,0.078924
1552637032.110348,0,0,-0.065468,0.064767,0.075942
1552637032.128477,0,0,-0.066399,0.063950,0.068910
1552637032.146398,0,0,-0.063983,0.060781,0.060137
1552637032.164393,0,0,-0.057136,0.055210,0.051415
1552637032.182299,0,0,-0.051196,0.049095,0.043488
1552637032.231343,0,0,-0.045634,0.038622,0.027335
1552637032.249405,0,0,-0.047043,0.038251,0.026465
1552637032.267341,0,0,-0.049057,0.038771,0.027161
1552637032.285309,0,0,-0.053764,0.040677,0.029075
1552637032.302983,0,0,-0.057690,0.043698,0.031286
1552637032.320923,0,0,-0.061390,0.045431,0.031783
1552637032.353079,0,0,-0.063605,0.046149,0.031982
1552637032.382255,0,0,-0.067783,0.048427,0.034666
1552637032.400170,0,0,-0.069545,0.050085,0.036058
1552637032.418113,0,0,-0.071987,0.053378,0.041251
1552637032.436116,0,0,-0.075234,0.059865,0.046271
1552637032.454080,0,0,-0.078707,0.073531,0.049899
1552637032.472166,0,0,-0.081677,0.080612,0.051092
1552637032.492260,0,0,-0.083490,0.077591,0.049427
1552637032.528667,0,0,-0.079790,0.070288,0.046221
1552637032.564646,0,0,-0.069671,0.072863,0.044531
1552637032.583177,0,0,-0.065266,0.076849,0.057354
1552637032.601041,0,0,-0.067381,0.088584,0.071792
1552637032.618958,0,0,-0.069571,0.090045,0.078800
1552637032.636950,0,0,-0.071307,0.082469,0.073035
1552637032.654899,0,0,-0.067758,0.076502,0.061802
1552637032.680980,0,0,-0.053235,0.066228,0.052409
1552637032.728625,0,0,-0.051297,0.053601,0.057180
1552637032.746691,0,0,-0.057187,0.057562,0.062150
1552637032.764718,0,0,-0.065015,0.061350,0.059243
1552637032.782576,0,0,-0.071937,0.063851,0.058199
1552637032.800841,0,0,-0.073648,0.063356,0.053701
1552637032.818712,0,0,-0.071232,0.052289,0.047613
1552637032.840837,0,0,-0.059603,0.050110,0.042295
1552637032.889957,0,0,-0.059125,0.039588,0.033225
1552637032.908317,0,0,-0.060484,0.038499,0.032877
1552637032.926341,0,0,-0.061365,0.038251,0.034045
1552637032.944231,0,0,-0.063001,0.039068,0.036256
1552637032.962482,0,0,-0.066273,0.039266,0.044208
1552637032.980408,0,0,-0.070024,0.039093,0.039711
1552637033.002091,0,0,-0.073145,0.039836,0.044358
1552637033.051343,0,0,-0.087567,0.047263,0.058348
1552637033.086301,0,0,-0.091242,0.053477,0.073283
1552637033.103971,0,0,-0.099473,0.063603,0.072687
1552637033.121264,0,0,-0.099297,0.066302,0.068015
1552637033.138463,0,0,-0.099599,0.057191,0.065406
1552637033.155997,0,0,-0.095798,0.059989,0.071668
1552637033.173264,0,0,-0.086409,0.060261,0.082130
1552637033.196954,0,0,-0.080369,0.061573,0.091275
1552637033.232666,0,0,-0.072390,0.058998,0.091026
1552637033.250005,0,0,-0.066097,0.045505,0.088218
1552637033.267637,0,0,-0.059100,0.046471,0.090852
1552637033.284929,0,0,-0.055223,0.046124,0.096419
1552637033.302405,0,0,-0.055349,0.056894,0.099649
1552637033.320096,0,0,-0.059830,0.062811,0.096170
1552637033.340235,0,0,-0.064008,0.059815,0.088491
1552637033.375807,0,0,-0.063958,0.057141,0.066648
1552637033.394124,0,0,-0.051951,0.043797,0.056534
1552637033.411351,0,0,-0.047698,0.037682,0.048284
1552637033.428914,0,0,-0.044929,0.032507,0.041649
1552637033.446179,0,0,-0.044728,0.030279,0.037151
1552637033.463721,0,0,-0.047094,0.029908,0.035238
1552637033.482261,0,0,-0.050869,0.031641,0.035859
1552637033.517503,0,0,-0.054670,0.033968,0.039785
1552637033.534776,0,0,-0.061566,0.035775,0.040406
1552637033.552746,0,0,-0.061516,0.034562,0.040879
1552637033.569952,0,0,-0.062170,0.033547,0.042121
1552637033.587623,0,0,-0.063706,0.034191,0.045078
1552637033.604733,0,0,-0.067632,0.043227,0.049949
1552637033.623843,0,0,-0.072616,0.041841,0.054869
1552637033.659028,0,0,-0.076895,0.053502,0.061753
1552637033.676740,0,0,-0.082709,0.057092,0.064337
1552637033.694069,0,0,-0.083288,0.058354,0.065257
1552637033.711324,0,0,-0.081375,0.058280,0.064660
1552637033.728534,0,0,-0.078531,0.055953,0.061454
1552637033.746399,0,0,-0.076241,0.054492,0.061579
1552637033.768764,0,0,-0.073346,0.058305,0.068462
1552637033.804751,0,0,-0.075838,0.062613,0.100668
1552637033.840530,0,0,-0.072264,0.069991,0.085982
1552637033.858614,0,0,-0.066424,0.063034,0.072811
1552637033.876448,0,0,-0.055979,0.054542,0.059765
1552637033.894263,0,0,-0.050768,0.049739,0.051962
1552637033.912185,0,0,-0.057036,0.050704,0.049601
1552637033.929997,0,0,-0.057942,0.054913,0.049029
1552637033.952389,0,0,-0.064436,0.060781,0.049278
1552637033.989900,0,0,-0.076845,0.062662,0.046619
1552637034.008199,0,0,-0.069671,0.056597,0.043065
1552637034.026886,0,0,-0.064360,0.048798,0.033274
1552637034.045629,0,0,-0.060056,0.041172,0.036878
1552637034.063601,0,0,-0.058269,0.035429,0.037201
1552637034.081450,0,0,-0.057564,0.025426,0.039537
1552637034.099220,0,0,-0.057791,0.030601,0.043289
1552637034.120755,0,0,-0.059930,0.032284,0.046942
1552637034.158331,0,0,-0.065568,0.034488,0.051763
1552637034.176358,0,0,-0.068941,0.035231,0.049750
1552637034.194344,0,0,-0.071962,0.033498,0.048035
1552637034.212229,0,0,-0.075209,0.030353,0.046669
1552637034.230058,0,0,-0.076996,0.026070,0.046892
1552637034.247868,0,0,-0.077398,0.024114,0.046693
1552637034.265702,0,0,-0.077449,0.024461,0.045948
1552637034.288045,0,0,-0.080897,0.026739,0.045998
1552637034.340178,0,0,-0.093029,0.049763,0.069630
1552637034.358046,0,0,-0.099548,0.053378,0.074352
1552637034.376027,0,0,-0.099724,0.055780,0.083994
1552637034.393888,0,0,-0.092224,0.057092,0.095549
1552637034.411719,0,0,-0.086183,0.060211,0.101960
1552637034.429545,0,0,-0.081703,0.061672,0.102830
1552637034.447437,0,0,-0.079387,0.060211,0.100320
1552637034.469707,0,0,-0.071282,0.058627,0.100221
1552637034.507190,0,0,-0.073245,0.059320,0.101786
1552637034.525197,0,0,-0.069772,0.060335,0.093288
1552637034.543258,0,0,-0.068564,0.056324,0.083521
1552637034.561138,0,0,-0.064033,0.051199,0.073358
1552637034.578968,0,0,-0.057111,0.045976,0.063368
1552637034.596740,0,0,-0.052807,0.040752,0.052906
1552637034.614636,0,0,-0.051624,0.037533,0.045004
1552637034.636614,0,0,-0.051800,0.036369,0.040058
1552637034.690143,0,0,-0.053613,0.042113,0.040705
1552637034.725725,0,0,-0.062170,0.044515,0.044432
1552637034.743975,0,0,-0.063731,0.041098,0.046196
1552637034.761940,0,0,-0.063051,0.039687,0.049700
1552637034.779850,0,0,-0.064864,0.038499,0.051092
1552637034.797765,0,0,-0.068841,0.037781,0.051713
1552637034.815616,0,0,-0.069646,0.034290,0.051937
1552637034.837946,0,0,-0.069243,0.031715,0.052682
1552637034.890649,0,0,-0.074982,0.025451,0.051166
1552637034.926263,0,0,-0.073245,0.029140,0.063741
1552637034.944475,0,0,-0.079160,0.040677,0.067120
1552637034.962411,0,0,-0.080847,0.044639,0.065580
1552637034.980243,0,0,-0.082835,0.048451,0.062995
1552637034.998095,0,0,-0.085881,0.053824,0.065281
1552637035.016303,0,0,-0.089631,0.058156,0.074004
1552637035.039634,0,0,-0.090185,0.068258,0.087746
1552637035.079383,0,0,-0.088171,0.063702,0.081036
1552637035.097395,0,0,-0.069621,0.054715,0.067940
1552637035.115299,0,0,-0.056331,0.046099,0.058373
1552637035.133152,0,0,-0.054695,0.044416,0.055242
1552637035.150968,0,0,-0.058949,0.049293,0.057230
1552637035.168851,0,0,-0.066273,0.055037,0.059466
1552637035.191511,0,0,-0.072188,0.059444,0.060510
1552637035.227289,0,0,-0.073623,0.056448,0.051813
1552637035.245795,0,0,-0.058647,0.043797,0.047663
1552637035.272328,0,0,-0.059704,0.035676,0.041425
1552637035.290196,0,0,-0.058219,0.031987,0.038940
1552637035.308036,0,0,-0.058647,0.030700,0.038841
1552637035.325862,0,0,-0.060534,0.030279,0.039214
1552637035.343678,0,0,-0.063303,0.030229,0.041251
1552637035.366001,0,0,-0.064310,0.030130,0.045650
1552637035.403632,0,0,-0.069495,0.031071,0.057081
1552637035.439233,0,0,-0.071458,0.031863,0.061380
1552637035.457466,0,0,-0.075334,0.031665,0.059839
1552637035.475383,0,0,-0.078632,0.031146,0.059119
1552637035.493197,0,0,-0.080721,0.037484,0.060759
1552637035.511030,0,0,-0.084018,0.032928,0.062150
1552637035.528863,0,0,-0.086963,0.034116,0.062573
1552637035.551511,0,0,-0.088020,0.035726,0.062349
1552637035.588031,0,0,-0.090714,0.036419,0.059640
1552637035.623441,0,0,-0.095471,0.033225,0.065903
1552637035.641672,0,0,-0.090940,0.035602,0.095325
1552637035.659523,0,0,-0.088146,0.040430,0.105688
1552637035.677427,0,0,-0.085679,0.041668,0.104321
1552637035.695331,0,0,-0.083011,0.037904,0.093809
1552637035.713169,0,0,-0.074655,0.032086,0.082850
1552637035.732439,0,0,-0.067532,0.026268,0.075992
1552637035.790290,0,0,-0.070225,0.033002,0.078154
1552637035.825891,0,0,-0.069873,0.036072,0.077160
1552637035.844205,0,0,-0.064813,0.033225,0.072662
1552637035.862052,0,0,-0.060132,0.028224,0.058845
1552637035.879952,0,0,-0.055979,0.022951,0.056807
1552637035.897752,0,0,-0.053512,0.018494,0.048532
1552637035.915620,0,0,-0.054443,0.016068,0.045724
1552637035.934898,0,0,-0.055828,0.013988,0.046693
1552637035.990347,0,0,-0.066802,0.019608,0.055565
1552637036.026500,0,0,-0.071937,0.021267,0.060262
1552637036.045236,0,0,-0.075762,0.021391,0.061107
1552637036.063160,0,0,-0.076794,0.021564,0.061976
1552637036.081066,0,0,-0.077424,0.019905,0.062498
1552637036.098903,0,0,-0.078380,0.019831,0.063368
1552637036.116804,0,0,-0.080822,0.020054,0.063939
1552637036.139273,0,0,-0.082609,0.020549,0.064387
1552637036.177526,0,0,-0.082080,0.021465,0.064784
1552637036.195631,0,0,-0.080016,0.024609,0.064064
1552637036.213498,0,0,-0.078581,0.026961,0.063169
1552637036.231357,0,0,-0.078556,0.028076,0.062374
1552637036.249185,0,0,-0.078506,0.029660,0.063293
1552637036.266996,0,0,-0.077071,0.032903,0.066897
1552637036.289925,0,0,-0.078154,0.036196,0.070748
1552637036.327364,0,0,-0.080243,0.040504,0.086528
1552637036.345651,0,0,-0.077650,0.045233,0.093288
1552637036.363663,0,0,-0.075209,0.042930,0.093884
1552637036.381552,0,0,-0.069394,0.039390,0.083248
1552637036.399459,0,0,-0.063706,0.035577,0.076588
1552637036.417286,0,0,-0.060887,0.034612,0.075892
1552637036.435094,0,0,-0.061315,0.037434,0.074203
1552637036.457877,0,0,-0.063781,0.041172,0.073059
1552637036.510103,0,0,-0.068589,0.039761,0.060933
1552637036.545733,0,0,-0.063202,0.034562,0.045451
1552637036.563931,0,0,-0.058370,0.025724,0.048706
1552637036.581830,0,0,-0.057715,0.023619,0.047290
1552637036.599554,0,0,-0.058470,0.022332,0.047613
1552637036.617387,0,0,-0.060308,0.021812,0.048681
1552637036.635211,0,0,-0.062800,0.021638,0.051266
1552637036.657541,0,0,-0.064260,0.021218,0.054173
1552637036.710207,0,0,-0.067582,0.021094,0.060088
1552637036.728218,0,0,-0.071811,0.021440,0.061156
1552637036.746208,0,0,-0.073623,0.021515,0.061554
1552637036.764058,0,0,-0.074680,0.021589,0.061479
1552637036.782029,0,0,-0.074932,0.020920,0.060957
1552637036.799850,0,0,-0.074756,0.020128,0.061355
1552637036.817687,0,0,-0.075737,0.021020,0.064163
1552637036.839947,0,0,-0.078984,0.023669,0.067021
1552637036.875920,0,0,-0.081174,0.025451,0.070500
1552637036.893988,0,0,-0.083540,0.024882,0.075221
1552637036.922244,0,0,-0.083666,0.025377,0.093611
1552637036.940094,0,0,-0.082533,0.029264,0.107129
1552637036.957917,0,0,-0.081048,0.034215,0.114211
1552637036.975743,0,0,-0.080067,0.037211,0.112919
1552637036.993633,0,0,-0.071609,0.037830,0.105787
1552637037.016827,0,0,-0.072717,0.034612,0.094754
1552637037.070434,0,0,-0.061516,0.024089,0.076936
1552637037.106099,0,0,-0.060056,0.025030,0.078626
1552637037.124390,0,0,-0.062120,0.027382,0.080365
1552637037.142288,0,0,-0.061264,0.027209,0.080465
1552637037.160179,0,0,-0.059175,0.026392,0.078527
1552637037.178035,0,0,-0.056457,0.024312,0.073656
1552637037.195932,0,0,-0.053462,0.022728,0.067940
1552637037.218429,0,0,-0.051800,0.021688,0.059640
1552637037.256454,0,0,-0.051297,0.020945,0.053453
1552637037.274483,0,0,-0.054166,0.023223,0.053204
1552637037.292390,0,0,-0.057011,0.025699,0.053999
1552637037.310223,0,0,-0.060157,0.027655,0.056012
1552637037.328064,0,0,-0.062749,0.029685,0.058125
1552637037.345856,0,0,-0.065518,0.037607,0.061082
1552637037.365529,0,0,-0.067129,0.033077,0.063865
1552637037.405826,0,0,-0.069168,0.033894,0.068785
1552637037.424079,0,0,-0.070451,0.034735,0.069158
1552637037.442144,0,0,-0.070879,0.035429,0.068885
1552637037.459959,0,0,-0.070628,0.036716,0.068736
1552637037.477815,0,0,-0.068891,0.039043,0.069779
1552637037.495712,0,0,-0.066902,0.039637,0.069680
1552637037.513541,0,0,-0.062926,0.041123,0.069829
1552637037.533161,0,0,-0.061466,0.040603,0.067418
1552637037.590245,0,0,-0.070754,0.042113,0.064710
1552637037.625748,0,0,-0.068136,0.044441,0.089684
1552637037.643962,0,0,-0.076669,0.059964,0.107179
1552637037.661860,0,0,-0.079311,0.062489,0.113764
1552637037.679732,0,0,-0.074655,0.060583,0.104893
1552637037.697622,0,0,-0.064260,0.054319,0.094878
1552637037.715457,0,0,-0.054796,0.044193,0.077980
1552637037.737756,0,0,-0.051549,0.036815,0.066325
1552637037.790332,0,0,-0.057640,0.036444,0.059939
1552637037.825978,0,0,-0.063051,0.039662,0.065604
1552637037.844213,0,0,-0.066298,0.039836,0.066772
1552637037.862054,0,0,-0.064058,0.037335,0.066499
1552637037.879881,0,0,-0.062196,0.034463,0.058572
1552637037.897750,0,0,-0.060937,0.031987,0.061802
1552637037.915628,0,0,-0.060383,0.030130,0.060933
1552637037.937966,0,0,-0.059855,0.029041,0.061579
1552637037.990397,0,0,-0.059578,0.027976,0.063169
1552637038.026451,0,0,-0.061290,0.028224,0.063939
1552637038.045185,0,0,-0.061491,0.028496,0.065281
1552637038.063137,0,0,-0.063077,0.029833,0.066946
1552637038.080968,0,0,-0.065468,0.037657,0.067891
1552637038.098794,0,0,-0.068186,0.032854,0.069059
1552637038.116650,0,0,-0.069998,0.032953,0.070301
1552637038.136182,0,0,-0.071383,0.032631,0.071419
1552637038.178911,0,0,-0.071785,0.034438,0.074053
1552637038.196981,0,0,-0.072364,0.034760,0.074128
1552637038.214817,0,0,-0.073573,0.033671,0.073929
1552637038.232666,0,0,-0.072213,0.032656,0.075818
1552637038.250493,0,0,-0.070300,0.030106,0.078005
1552637038.268291,0,0,-0.067280,0.026788,0.080167
1552637038.290968,0,0,-0.064184,0.024089,0.082751
1552637038.328270,0,0,-0.061441,0.022827,0.096866
1552637038.346492,0,0,-0.062951,0.027283,0.102805
1552637038.364495,0,0,-0.064260,0.030626,0.106731
1552637038.382334,0,0,-0.065216,0.033918,0.106856
1552637038.400192,0,0,-0.064713,0.035676,0.104321
1552637038.418081,0,0,-0.063756,0.035825,0.100519
1552637038.435897,0,0,-0.062170,0.035750,0.095673
1552637038.458594,0,0,-0.059427,0.034859,0.089560
1552637038.495912,0,0,-0.056079,0.031938,0.068959
1552637038.514250,0,0,-0.051498,0.027853,0.063790
1552637038.532278,0,0,-0.049988,0.026912,0.062001
1552637038.550515,0,0,-0.050215,0.028001,0.061181
1552637038.568523,0,0,-0.051549,0.029511,0.060883
1552637038.586398,0,0,-0.053638,0.031022,0.061604
1552637038.604080,0,0,-0.056910,0.033349,0.063766
1552637038.623776,0,0,-0.058571,0.034933,0.065107
1552637038.660552,0,0,-0.059150,0.035206,0.065555
1552637038.696516,0,0,-0.059754,0.034562,0.064859
1552637038.714590,0,0,-0.061340,0.031888,0.065306
1552637038.732436,0,0,-0.061541,0.030774,0.065679
1552637038.750271,0,0,-0.062196,0.029511,0.064909
1552637038.768106,0,0,-0.070049,0.030056,0.064387
1552637038.785903,0,0,-0.066273,0.030650,0.063890
1552637038.808588,0,0,-0.067884,0.032680,0.064337
1552637038.846056,0,0,-0.076618,0.034215,0.055093
1552637038.864318,0,0,-0.070024,0.030650,0.053378
1552637038.882334,0,0,-0.064411,0.029858,0.057777
1552637038.900203,0,0,-0.060333,0.027531,0.068860
1552637038.918075,0,0,-0.052354,0.026912,0.078253
1552637038.935745,0,0,-0.039240,0.025204,0.088193
1552637038.953581,0,0,-0.027033,0.022480,0.088790
1552637038.976417,0,0,-0.012283,0.019806,0.095102
1552637039.030673,0,0,0.028752,0.007328,0.101637
1552637039.066534,0,0,0.033573,0.007427,0.104296
1552637039.084851,0,0,0.035156,0.015152,0.110459
1552637039.102495,0,0,0.035378,0.017677,0.114186
1552637039.120398,0,0,0.037727,0.018073,0.115429
1552637039.138250,0,0,0.039606,0.017553,0.115702
1552637039.156089,0,0,0.038567,0.017652,0.114385
1552637039.175510,0,0,0.037059,0.019336,0.113814
1552637039.216137,0,0,0.036144,0.013939,0.111105
1552637039.234219,0,0,0.030532,0.018965,0.107402
1552637039.252233,0,0,0.025267,0.018049,0.103625
1552637039.270089,0,0,0.014364,0.017776,0.101389
1552637039.288013,0,0,0.016960,0.017454,0.099674
1552637039.305827,0,0,0.015007,0.016811,0.099152
1552637039.323713,0,0,0.014290,0.016117,0.099997
1552637039.343118,0,0,0.015526,0.014310,0.100221
1552637039.379878,0,0,0.015600,0.015152,0.100370
1552637039.415490,0,0,0.016465,0.015598,0.100444
1552637039.433811,0,0,0.021682,0.018717,0.102010
1552637039.451658,0,0,0.022448,0.022158,0.106110
1552637039.469480,0,0,0.023857,0.023545,0.109366
1552637039.487323,0,0,0.025909,0.021787,0.110186
1552637039.505136,0,0,0.027022,0.018643,0.107924
1552637039.527436,0,0,0.026379,0.016637,0.103029
1552637039.580330,0,0,0.021904,0.017652,0.088094
1552637039.598294,0,0,0.017528,0.019460,0.089088
1552637039.616295,0,0,0.017331,0.020326,0.090405
1552637039.634219,0,0,0.019209,0.019608,0.091126
1552637039.652155,0,0,0.024055,0.019113,0.091573
1552637039.669997,0,0,0.026008,0.019534,0.092443
1552637039.687851,0,0,0.026305,0.021168,0.093785
1552637039.710083,0,0,0.025736,0.022381,0.095574
1552637039.747066,0,0,0.023907,0.021168,0.095151
1552637039.765102,0,0,0.018221,0.016093,0.091076
1552637039.792239,0,0,0.019976,0.013072,0.094182
1552637039.810072,0,0,0.021286,0.012750,0.091374
1552637039.827941,0,0,0.022794,0.013617,0.101438
1552637039.845811,0,0,0.023709,0.013765,0.104768
1552637039.863602,0,0,0.025217,0.012181,0.104992
1552637039.884523,0,0,0.026330,0.011463,0.103749
1552637039.940525,0,0,0.029395,0.011488,0.101861
1552637039.976186,0,0,0.029667,0.011265,0.101488
1552637039.994468,0,0,0.028406,0.008962,0.100171
1552637040.012578,0,0,0.027318,0.008591,0.099053
1552637040.031140,0,0,0.026008,0.009210,0.098928
1552637040.049326,0,0,0.025143,0.009656,0.098158
1552637040.067338,0,0,0.025390,0.009804,0.096916
1552637040.085818,0,0,0.026107,0.009656,0.096543
1552637040.104342,0,0,0.026379,0.009557,0.097761
1552637040.149891,0,0,0.027887,0.007130,0.096543
1552637040.167929,0,0,0.028901,0.008319,0.097388
1552637040.185794,0,0,0.027739,0.011364,0.100121
1552637040.203613,0,0,0.028777,0.013369,0.102731
1552637040.221441,0,0,0.029469,0.014310,0.103203
1552637040.239313,0,0,0.028653,0.015845,0.102234
1552637040.260477,0,0,0.027145,0.018395,0.101811
1552637040.299225,0,0,0.025390,0.020202,0.101066
1552637040.317532,0,0,0.025687,0.020450,0.100593
1552637040.335639,0,0,0.025563,0.021094,0.100469
1552637040.353288,0,0,0.026132,0.020698,0.098978
1552637040.371133,0,0,0.027887,0.019831,0.096369
1552637040.388964,0,0,0.029469,0.018420,0.093785
1552637040.406775,0,0,0.030829,0.017182,0.092095
1552637040.426447,0,0,0.030953,0.016712,0.090430
1552637040.466660,0,0,0.029222,0.015994,0.084366
1552637040.485000,0,0,0.028827,0.012602,0.083000
1552637040.503017,0,0,0.027937,0.012701,0.082925
1552637040.520870,0,0,0.027961,0.011909,0.082428
1552637040.538776,0,0,0.028184,0.009878,0.081608
1552637040.556623,0,0,0.028703,0.007972,0.081782
1552637040.574433,0,0,0.028431,0.006808,0.083695
1552637040.594283,0,0,0.027590,0.008764,0.087398
1552637040.634266,0,0,0.028382,0.009210,0.093536
1552637040.670172,0,0,0.033400,0.007328,0.094779
1552637040.688181,0,0,0.035749,0.007254,0.094679
1552637040.706037,0,0,0.034612,0.008343,0.094779
1552637040.723902,0,0,0.026750,0.010968,0.098108
1552637040.741786,0,0,0.029024,0.012627,0.101935
1552637040.759674,0,0,0.026453,0.011760,0.103526
1552637040.782380,0,0,0.028530,0.011463,0.103650
1552637040.819484,0,0,0.029840,0.010225,0.099276
1552637040.837824,0,0,0.030903,0.008715,0.097139
1552637040.855659,0,0,0.031942,0.005892,0.095126
1552637040.873569,0,0,0.033252,0.002723,0.092542
1552637040.891437,0,0,0.034241,0.000842,0.091126
1552637040.909275,0,0,0.036070,-0.000836,0.091076
1552637040.927117,0,0,0.038518,-0.000935,0.096369
1552637040.946862,0,0,0.039507,-0.002853,0.098158
1552637040.987272,0,0,0.043413,-0.012373,0.100469
1552637041.005869,0,0,0.042201,-0.007429,0.100892
1552637041.024702,0,0,0.040372,-0.003911,0.101066
1552637041.043047,0,0,0.039136,-0.005535,0.098804
1552637041.061108,0,0,0.041979,-0.006543,0.096866
1552637041.079008,0,0,0.042622,-0.007084,0.095201
1552637041.096800,0,0,0.040866,-0.005977,0.094729
1552637041.119007,0,0,0.036491,-0.003419,0.096319
1552637041.156483,0,0,0.034908,-0.004305,0.096767
1552637041.174823,0,0,0.038271,-0.007625,0.096593
1552637041.192873,0,0,0.038913,-0.009372,0.096096
1552637041.210701,0,0,0.039259,-0.010626,0.095748
1552637041.228538,0,0,0.040323,-0.011414,0.096294
1552637041.246429,0,0,0.040372,-0.009913,0.106980
1552637041.264245,0,0,0.042201,-0.011586,0.103799
1552637041.287016,0,0,0.045465,-0.012176,0.106384
1552637041.340274,0,0,0.034562,-0.006125,0.108496
1552637041.358199,0,0,0.032560,-0.005461,0.107725
1552637041.376189,0,0,0.032214,-0.004600,0.106632
1552637041.394384,0,0,0.031398,-0.003837,0.105638
1552637041.412055,0,0,0.029964,-0.002780,0.103998
1552637041.429751,0,0,0.030409,-0.003444,0.102234
1552637041.447658,0,0,0.032560,-0.006027,0.101389
1552637041.468596,0,0,0.032016,-0.004969,0.101935
1552637041.507466,0,0,0.031447,-0.011586,0.104843
1552637041.525476,0,0,0.034661,-0.007010,0.105265
1552637041.543916,0,0,0.028851,-0.006100,0.106036
1552637041.562093,0,0,0.023264,-0.007871,0.104271
1552637041.579976,0,0,0.023907,-0.009888,0.099450
1552637041.597738,0,0,0.024970,-0.009224,0.097636
1552637041.615605,0,0,0.011867,-0.009741,0.096841
1552637041.635074,0,0,0.007516,-0.012914,0.098779
1552637041.690140,0,0,0.011570,-0.017366,0.097885
1552637041.725730,0,0,0.006403,-0.014907,0.099401
1552637041.743971,0,0,0.037702,-0.021450,0.097761
1552637041.761924,0,0,0.052313,-0.010208,0.097139
1552637041.779752,0,0,0.025613,0.001857,0.095648
1552637041.797594,0,0,0.013869,0.011017,0.090554
1552637041.815422,0,0,0.001978,0.019732,0.087299
1552637041.836469,0,0,0.012831,0.027531,0.084416
1552637041.890383,0,0,0.029964,0.032631,0.088094
1552637041.925986,0,0,0.025415,0.031665,0.080788
1552637041.944241,0,0,0.034711,0.026491,0.081335
1552637041.962209,0,0,0.050508,0.020846,0.082701
1552637041.980049,0,0,0.048580,0.018717,0.088516
1552637041.997897,0,0,0.030953,0.021960,0.094729
1552637042.016110,0,0,0.016144,0.027679,0.101264
1552637042.039625,0,0,0.011966,0.036468,0.104669
1552637042.079200,0,0,0.018196,0.022134,0.094928
1552637042.097200,0,0,0.036392,0.020599,0.090703
1552637042.115218,0,0,0.033796,0.024560,0.084515
1552637042.132905,0,0,0.026824,0.034810,0.088839
1552637042.152343,0,0,0.008628,0.041172,0.104122
1552637042.170131,0,0,0.003807,0.045901,0.110310
1552637042.188061,0,0,0.003041,0.045604,0.112621
1552637042.209287,0,0,0.012361,0.037409,0.112000
1552637042.246813,0,0,0.026626,0.023198,0.108670
1552637042.264841,0,0,0.019902,0.019410,0.105812
1552637042.282825,0,0,0.007021,0.021341,0.101811
1552637042.300675,0,0,0.004648,0.023644,0.095922
1552637042.318527,0,0,0.005563,0.026813,0.090927
1552637042.336355,0,0,0.010062,0.028694,0.088591
1552637042.353978,0,0,0.004178,0.033572,0.088019
1552637042.376386,0,0,0.000593,0.040727,0.085907
1552637042.430476,0,0,0.016836,0.038028,0.081509
1552637042.466118,0,0,0.016638,0.036147,0.079993
1552637042.484425,0,0,0.005884,0.040653,0.078129
1552637042.502292,0,0,0.003066,0.044391,0.078750
1552637042.520168,0,0,0.005093,0.045852,0.078676
1552637042.538013,0,0,0.012188,0.044069,0.089908
1552637042.555933,0,0,0.024426,0.037731,0.092144
1552637042.578415,0,0,0.038345,0.030130,0.101264
1552637042.616186,0,0,0.032856,0.029611,0.106234
1552637042.634203,0,0,0.036416,0.039712,0.097015
1552637042.651972,0,0,0.039334,0.049590,0.080962
1552637042.669612,0,0,0.029395,0.050878,0.063890
1552637042.687472,0,0,0.033623,0.050556,0.057155
1552637042.705313,0,0,0.032362,0.044540,0.066101
1552637042.727707,0,0,0.042449,0.033547,0.071245
1552637042.780272,0,0,0.044031,0.035973,0.084217
1552637042.798312,0,0,0.041435,0.034513,0.099003
1552637042.816334,0,0,0.055502,0.036741,0.112472
1552637042.834214,0,0,0.045836,0.042881,0.105787
1552637042.851981,0,0,0.035601,0.039217,0.098904
1552637042.869846,0,0,0.040174,0.031591,0.090082
1552637042.887718,0,0,0.049519,0.030848,0.087597
1552637042.915513,0,0,0.045588,0.028917,0.086578
1552637042.951187,0,0,0.037702,0.030626,0.080862
1552637042.969108,0,0,0.037875,0.026120,0.082577
1552637042.986939,0,0,0.032238,0.030081,0.088491
1552637043.004884,0,0,0.029296,0.032161,0.083248
1552637043.023246,0,0,0.038196,0.024387,0.088839
1552637043.041724,0,0,0.006354,-0.004231,0.093288
1552637043.073305,0,0,0.024920,0.033621,0.092716
1552637043.109991,0,0,0.009914,0.007304,0.099376
1552637043.127953,0,0,0.010309,-0.000418,0.104743
1552637043.145826,0,0,0.008480,-0.001599,0.112546
1552637043.163649,0,0,0.001904,-0.001968,0.116945
1552637043.181526,0,0,0.002843,0.002203,0.117815
1552637043.199326,0,0,0.012164,0.002104,0.118635
1552637043.225941,0,0,0.010927,0.003714,0.119380
1552637043.261554,0,0,0.008678,-0.000959,0.136104
1552637043.279593,0,0,0.010705,-0.004034,0.135831
1552637043.297537,0,0,0.014166,-0.005731,0.133271
1552637043.315432,0,0,0.018764,-0.008363,0.130538
1552637043.333457,0,0,0.021830,-0.009495,0.129643
1552637043.351368,0,0,0.023264,-0.008683,0.127382
1552637043.381252,0,0,0.024352,-0.006863,0.124400
1552637043.419770,0,0,0.020965,0.000520,0.102557
1552637043.437793,0,0,0.018690,0.002674,0.097910
1552637043.455755,0,0,0.017232,0.005372,0.095375
1552637043.473650,0,0,0.015822,-0.005313,0.094903
1552637043.491548,0,0,0.013400,-0.002534,0.095524
1552637043.509434,0,0,0.011867,-0.008831,0.095276
1552637043.542386,0,0,0.009543,-0.010503,0.094431
1552637043.572260,0,0,0.008974,-0.023442,0.083472
1552637043.590519,0,0,0.017776,-0.032273,0.079943
1552637043.608261,0,0,0.019976,-0.036282,0.075445
1552637043.626060,0,0,0.018097,-0.031904,0.068860
1552637043.643940,0,0,0.011768,-0.026271,0.064809
1552637043.661982,0,0,0.008035,-0.009249,0.074029
1552637043.693623,0,0,0.010210,0.001065,0.085410
1552637043.722254,0,0,0.007244,0.002649,0.103327
1552637043.740328,0,0,-0.002416,0.006610,0.114162
1552637043.758173,0,0,-0.003524,0.008888,0.116498
1552637043.775989,0,0,-0.002769,0.007898,0.119952
1552637043.793791,0,0,-0.003197,0.008665,0.117939
1552637043.811588,0,0,-0.002114,0.012552,0.106234
1552637043.843168,0,0,-0.002895,0.009160,0.090305
1552637043.872258,0,0,-0.000050,0.008616,0.086702
1552637043.890333,0,0,0.006527,0.006066,0.099823
1552637043.908262,0,0,0.003708,-0.007429,0.109316
1552637043.941243,0,0,-0.008659,-0.001968,0.110807
1552637043.959061,0,0,-0.004757,0.002203,0.094928
1552637043.990473,0,0,-0.001334,-0.000344,0.093362
1552637044.050214,0,0,-0.001661,0.003862,0.080092
1552637044.069010,0,0,-0.014448,-0.006076,0.076911
1552637044.086926,0,0,-0.029172,-0.009642,0.078253
1552637044.105270,0,0,-0.029500,-0.007527,0.083969
1552637044.123149,0,0,-0.029399,-0.004255,0.096990
1552637044.141295,0,0,-0.034408,0.000223,0.109987
1552637044.165399,0,0,-0.044123,-0.003001,0.118734
1552637044.209917,0,0,-0.047194,-0.006396,0.126761
1552637044.228065,0,0,-0.040398,-0.013627,0.121219
1552637044.245948,0,0,-0.036119,-0.002730,0.108570
1552637044.263755,0,0,-0.045986,0.013047,0.096667
1552637044.281645,0,0,-0.025774,0.019559,0.086503
1552637044.299506,0,0,-0.019331,0.018247,0.079197
1552637044.328502,0,0,-0.033678,0.019212,0.081782
1552637044.363163,0,0,-0.043872,0.038375,0.075619
1552637044.381073,0,0,-0.030053,0.041915,0.070624
1552637044.399565,0,0,-0.025749,0.038028,0.071121
1552637044.417482,0,0,-0.032344,0.048526,0.064089
1552637044.435956,0,0,-0.036774,0.053948,0.057777
1552637044.453861,0,0,-0.034106,0.056770,0.057801
1552637044.475217,0,0,-0.032646,0.062539,0.065430
1552637044.511329,0,0,-0.042009,0.066500,0.076936
1552637044.548538,0,0,-0.045080,0.069496,0.072041
1552637044.567286,0,0,-0.051020,0.055631,0.066847
1552637044.584944,0,0,-0.033653,0.044639,0.062275
1552637044.603508,0,0,-0.033904,0.018890,0.062747
1552637044.620719,0,0,-0.038359,0.009160,0.068487
1552637044.638355,0,0,-0.041304,0.005422,0.067766
1552637044.665093,0,0,-0.040373,0.008343,0.071320
1552637044.700266,0,0,-0.045810,0.027481,0.109614
1552637044.717841,0,0,-0.057262,0.033077,0.129718
1552637044.735226,0,0,-0.057187,0.046174,0.143584
1552637044.752589,0,0,-0.053210,0.051224,0.151909
1552637044.769909,0,0,-0.052480,0.044119,0.146194
1552637044.787182,0,0,-0.050919,0.037063,0.127258
1552637044.810172,0,0,-0.036119,0.028298,0.108198
1552637044.845242,0,0,-0.012359,-0.000197,0.087398
1552637044.862912,0,0,0.011175,0.010076,0.075321
1552637044.880696,0,0,0.013251,0.017405,0.069854
1552637044.897941,0,0,0.012732,0.029809,0.073010
1552637044.915993,0,0,0.004549,0.036518,0.078427
1552637044.933282,0,0,0.000223,0.036468,0.087323
1552637044.952589,0,0,-0.002190,0.026615,0.106632
1552637044.988449,0,0,-0.007954,0.007254,0.119455
1552637045.006738,0,0,-0.034030,0.026912,0.116075
1552637045.024698,0,0,-0.034634,0.040355,0.104619
1552637045.043367,0,0,-0.029021,0.047436,0.097313
1552637045.060527,0,0,-0.014196,0.050729,0.093934
1552637045.078375,0,0,-0.014725,0.048872,0.094530
1552637045.097562,0,0,-0.006116,0.048154,0.092865
1552637045.115456,0,0,0.002497,0.055656,0.075197
1552637045.151010,0,0,0.043858,0.039613,0.044656
1552637045.168700,0,0,0.052733,0.016365,0.037797
1552637045.186146,0,0,0.057579,-0.007060,0.038220
1552637045.204214,0,0,0.052486,-0.012619,0.035859
1552637045.221391,0,0,0.049841,-0.017612,0.038244
1552637045.240095,0,0,0.042795,-0.018030,0.045153
1552637045.275603,0,0,0.033845,-0.013701,0.063418
1552637045.293027,0,0,0.020124,-0.002017,0.076837
1552637045.323114,0,0,-0.005009,0.005546,0.094431
1552637045.340859,0,0,-0.014272,-0.002361,0.111652
1552637045.359332,0,0,-0.026328,0.002302,0.119032
1552637045.377234,0,0,-0.030280,0.006115,0.116175
1552637045.395622,0,0,-0.031362,0.007254,0.114186
1552637045.413489,0,0,-0.030406,0.012255,0.114559
1552637045.448746,0,0,-0.026580,0.015969,0.121020
1552637045.466131,0,0,-0.033300,0.014459,0.125245
1552637045.484077,0,0,-0.029802,0.012057,0.131979
1552637045.501257,0,0,-0.021722,0.012800,0.138391
1552637045.518916,0,0,-0.013365,0.014384,0.135856
1552637045.536137,0,0,-0.011251,-0.000984,0.135409
1552637045.555178,0,0,-0.008105,-0.006223,0.135607
1552637045.572548,0,0,-0.012988,-0.013824,0.125493
1552637045.602451,0,0,-0.013768,-0.001845,0.101637
1552637045.619672,0,0,-0.007929,0.004333,0.089063
1552637045.637398,0,0,-0.000478,-0.004870,0.082726
1552637045.654649,0,0,0.003115,-0.011168,0.080216
1552637045.672233,0,0,0.006082,-0.016407,0.084043
1552637045.691766,0,0,0.009691,-0.016579,0.087522
1552637045.726951,0,0,0.007713,-0.028829,0.107154
1552637045.744215,0,0,0.001731,-0.046909,0.425385
1552637045.762273,0,0,-0.039366,0.062019,0.138788
1552637045.779487,0,0,-0.016059,0.006808,0.059640
1552637045.797177,0,0,0.023140,0.020351,0.061628
1552637045.814421,0,0,0.013499,0.010893,0.078676
1552637045.834186,0,0,0.017776,-0.011537,0.081459
1552637045.869332,0,0,-0.002215,-0.046663,0.148529
1552637045.887412,0,0,0.030013,0.003268,0.106905
1552637045.904560,0,0,0.006502,0.029685,0.120747
1552637045.922684,0,0,0.017973,0.044020,0.086081
1552637045.939872,0,0,-0.029550,0.009656,0.080092
1552637045.957674,0,0,-0.052606,-0.001648,0.098581
1552637045.976061,0,0,-0.034282,0.015697,0.100295
1552637045.993847,0,0,-0.003473,0.003837,0.108024
1552637046.022247,0,0,-0.009363,-0.007355,0.062772
1552637046.039978,0,0,-0.006997,-0.004010,0.060933
1552637046.057985,0,0,0.022819,0.011933,0.043637
1552637046.075250,0,0,0.006106,0.005694,0.063741
1552637046.093318,0,0,0.055131,0.034389,0.108645
1552637046.112860,0,0,0.051176,0.023966,0.072761
1552637046.149211,0,0,0.015798,0.021787,0.087771
1552637046.185368,0,0,0.014413,0.012329,0.094480
1552637046.204246,0,0,0.014240,0.004407,0.101513
1552637046.221632,0,0,0.017133,0.009086,0.098009
1552637046.239024,0,0,0.014883,0.022035,0.099997
1552637046.256811,0,0,0.018270,0.026615,0.097437
1552637046.273960,0,0,0.011002,0.028422,0.090479
1552637046.294277,0,0,0.026453,0.014384,0.107775
1552637046.329994,0,0,0.025934,-0.000738,0.089585
1552637046.347260,0,0,0.005043,0.013716,0.127407
1552637046.364990,0,0,0.017899,0.013617,0.085509
1552637046.382180,0,0,0.014290,0.036246,0.122735
1552637046.399614,0,0,0.021830,0.010349,0.078328
1552637046.417507,0,0,0.015353,0.017182,0.125742
1552637046.435234,0,0,0.016737,0.001931,0.074998
1552637046.454039,0,0,0.011768,0.025278,0.124226
1552637046.482208,0,0,0.016762,0.021490,0.094530
1552637046.499586,0,0,0.018394,0.020004,0.096021
1552637046.516743,0,0,0.017331,0.012107,0.102184
1552637046.534021,0,0,0.010804,0.013617,0.095499
1552637046.551280,0,0,0.018987,0.015498,0.104843
1552637046.568509,0,0,0.018616,0.017850,0.092542
1552637046.587081,0,0,0.018542,0.005422,0.104868
1552637046.604469,0,0,0.009123,0.002649,0.096443
1552637046.631576,0,0,0.015625,0.024189,0.097214
1552637046.648788,0,0,0.016243,0.030551,0.095151
1552637046.666038,0,0,0.018962,0.018568,0.098158
1552637046.683278,0,0,0.015575,0.010943,0.100196
1552637046.700536,0,0,0.016614,0.004382,0.097413
1552637046.719543,0,0,0.017083,0.012602,0.100792
1552637046.754774,0,0,0.018072,0.024882,0.098233
1552637046.772134,0,0,0.017009,0.015796,0.098804
1552637046.789392,0,0,0.014586,0.014508,0.099152
1552637046.806549,0,0,0.018888,0.013146,0.098581
1552637046.823830,0,0,0.016317,0.015721,0.098904
1552637046.841070,0,0,0.018072,0.013914,0.098829
1552637046.858591,0,0,0.014092,0.016959,0.099425
1552637046.893695,0,0,0.018097,0.017380,0.099301
1552637046.929419,0,0,0.018319,0.014409,0.098183
1552637046.947274,0,0,0.017182,0.017826,0.099550
1552637046.965189,0,0,0.015551,0.020401,0.097214
1552637046.983147,0,0,0.017207,0.015845,0.099624
1552637047.001047,0,0,0.015872,0.012800,0.098208
1552637047.019379,0,0,0.017034,0.012775,0.099599
1552637047.042349,0,0,0.015649,0.017999,0.099823
1552637047.080088,0,0,0.017553,0.013592,0.099674
1552637047.098245,0,0,0.016366,0.011785,0.099028
1552637047.116456,0,0,0.016564,0.015523,0.098755
1552637047.134413,0,0,0.017380,0.017751,0.098009
1552637047.152389,0,0,0.016465,0.016860,0.099252
1552637047.170391,0,0,0.016984,0.012948,0.099177
1552637047.188329,0,0,0.016243,0.014038,0.099053
1552637047.210743,0,0,0.016910,0.017776,0.098506
1552637047.246665,0,0,0.016960,0.016786,0.099003
1552637047.265214,0,0,0.016614,0.014310,0.099202
1552637047.292250,0,0,0.016169,0.017850,0.098655
1552637047.310178,0,0,0.017331,0.016142,0.099053
1552637047.328191,0,0,0.016416,0.014335,0.098904
1552637047.346098,0,0,0.016663,0.015127,0.098829
1552637047.363973,0,0,0.016218,0.017256,0.098829
1552637047.386201,0,0,0.017034,0.016736,0.098481
1552637047.440249,0,0,0.016688,0.016315,0.098755
1552637047.458211,0,0,0.016984,0.016538,0.098705
1552637047.476334,0,0,0.016614,0.014756,0.098879
1552637047.494254,0,0,0.017157,0.014434,0.098978
1552637047.512201,0,0,0.016861,0.015895,0.099177
1552637047.530187,0,0,0.016564,0.016860,0.098804
1552637047.548481,0,0,0.017108,0.015994,0.098829
1552637047.570315,0,0,0.016787,0.014805,0.098978
1552637047.606183,0,0,0.016490,0.015771,0.098506
1552637047.624096,0,0,0.016886,0.016018,0.098804
1552637047.652293,0,0,0.016366,0.014904,0.099078
1552637047.670109,0,0,0.016564,0.015870,0.098779
1552637047.688038,0,0,0.016614,0.016934,0.099028
1552637047.705921,0,0,0.016663,0.016093,0.098829
1552637047.723892,0,0,0.016416,0.015053,0.098829
1552637047.746359,0,0,0.016712,0.015573,0.098705
1552637047.800376,0,0,0.016638,0.015053,0.099102
1552637047.818296,0,0,0.016762,0.015201,0.098928
1552637047.836470,0,0,0.016762,0.015969,0.098854
1552637047.854113,0,0,0.016836,0.016291,0.099028
1552637047.872100,0,0,0.016836,0.015498,0.098928
1552637047.890035,0,0,0.016811,0.015127,0.099152
1552637047.907986,0,0,0.016737,0.015895,0.098755
1552637047.937366,0,0,0.016564,0.016093,0.098705
1552637047.972476,0,0,0.016712,0.015449,0.098879
1552637047.990406,0,0,0.016515,0.016142,0.098779
1552637048.008611,0,0,0.016638,0.016167,0.098854
1552637048.027269,0,0,0.016490,0.015845,0.098928
1552637048.045589,0,0,0.016712,0.015498,0.098953
1552637048.063329,0,0,0.016564,0.016167,0.098630
1552637048.085083,0,0,0.016712,0.016018,0.098978
1552637048.121013,0,0,0.016787,0.015325,0.098804
1552637048.156772,0,0,0.016737,0.015895,0.098829
1552637048.174576,0,0,0.016737,0.015474,0.098928
1552637048.192516,0,0,0.016762,0.015152,0.098953
1552637048.210423,0,0,0.016688,0.015647,0.098953
1552637048.228430,0,0,0.016762,0.015870,0.098730
1552637048.246336,0,0,0.016712,0.015548,0.099003
1552637048.266441,0,0,0.016663,0.015449,0.098953
1552637048.285580,0,0,0.016762,0.015573,0.098456
1552637048.330216,0,0,0.016787,0.015845,0.099003
1552637048.348110,0,0,0.016811,0.015399,0.098581
1552637048.366047,0,0,0.016490,0.015919,0.098804
1552637048.384122,0,0,0.016787,0.015919,0.099003
1552637048.402104,0,0,0.016490,0.015771,0.098854
1552637048.419977,0,0,0.016910,0.015820,0.099177
1552637048.442604,0,0,0.016762,0.015944,0.098829
1552637048.478251,0,0,0.016712,0.015969,0.098904
1552637048.513981,0,0,0.016762,0.015523,0.098953
1552637048.532034,0,0,0.016762,0.015697,0.098705
1552637048.549959,0,0,0.016663,0.015523,0.098854
1552637048.567894,0,0,0.016589,0.015548,0.098680
1552637048.585786,0,0,0.016836,0.015598,0.098904
1552637048.603647,0,0,0.016712,0.015672,0.098904
1552637048.626236,0,0,0.016787,0.015548,0.098978
1552637048.680298,0,0,0.016960,0.015746,0.098779
1552637048.715983,0,0,0.016737,0.015647,0.099003
1552637048.734378,0,0,0.016712,0.016093,0.099724
1552637048.752328,0,0,0.016218,0.016018,0.097611
1552637048.770233,0,0,0.017034,0.016068,0.096568
1552637048.788120,0,0,0.015872,0.016637,0.100370
1552637048.806052,0,0,0.017207,0.015845,0.097462
1552637048.828349,0,0,0.016045,0.016093,0.101339
1552637048.865939,0,0,0.017009,0.015399,0.096866
1552637048.884090,0,0,0.016811,0.015226,0.100469
1552637048.902171,0,0,0.016416,0.015226,0.098158
1552637048.920085,0,0,0.017157,0.015300,0.098978
1552637048.938064,0,0,0.016020,0.015226,0.099078
1552637048.955973,0,0,0.017677,0.015053,0.098829
1552637048.973901,0,0,0.016020,0.014954,0.099276
1552637048.993170,0,0,0.016515,0.015300,0.099500
1552637049.050559,0,0,0.016688,0.015498,0.099301
1552637049.068612,0,0,0.016663,0.015895,0.098680
1552637049.086518,0,0,0.016515,0.015771,0.098581
1552637049.104192,0,0,0.016515,0.016291,0.098904
1552637049.122097,0,0,0.016787,0.015721,0.098730
1552637049.140069,0,0,0.016169,0.016291,0.099003
1552637049.158012,0,0,0.017133,0.015895,0.098481
1552637049.180417,0,0,0.016193,0.016439,0.099177
1552637049.217816,0,0,0.016836,0.015746,0.098829
1552637049.235644,0,0,0.016836,0.015746,0.098779
1552637049.253505,0,0,0.016935,0.015697,0.098630
1552637049.271432,0,0,0.017083,0.015498,0.099177
1552637049.289334,0,0,0.016762,0.015548,0.099177
1552637049.307285,0,0,0.017059,0.015474,0.098755
1552637049.325187,0,0,0.016638,0.015746,0.099102
1552637049.347768,0,0,0.016960,0.015449,0.098928
1552637049.400168,0,0,0.016638,0.015647,0.098928
1552637049.418068,0,0,0.016515,0.015622,0.098804
1552637049.436136,0,0,0.016441,0.015548,0.099102
1552637049.454090,0,0,0.016366,0.015895,0.098928
1552637049.472066,0,0,0.016292,0.016018,0.098779
1552637049.489954,0,0,0.016490,0.015895,0.098829
1552637049.507861,0,0,0.016416,0.015845,0.098978
1552637049.527580,0,0,0.016465,0.016093,0.098854
1552637049.545718,0,0,0.016539,0.016167,0.098755
1552637049.590301,0,0,0.016638,0.015697,0.098730
1552637049.608245,0,0,0.016787,0.015845,0.098854
1552637049.626150,0,0,0.016787,0.015845,0.099003
1552637049.644109,0,0,0.016960,0.015498,0.098928
1552637049.662143,0,0,0.016910,0.015251,0.098904
1552637049.680054,0,0,0.016984,0.015424,0.098879
1552637049.702570,0,0,0.016712,0.015820,0.098829
1552637049.739919,0,0,0.016984,0.015399,0.098953
1552637049.758343,0,0,0.016910,0.015474,0.098755
1552637049.776173,0,0,0.016465,0.016018,0.099003
1552637049.794091,0,0,0.016737,0.015622,0.098829
1552637049.812073,0,0,0.016614,0.015771,0.098978
1552637049.829982,0,0,0.016589,0.015870,0.098928
1552637049.847861,0,0,0.016490,0.016266,0.098605
1552637049.870408,0,0,0.016663,0.016068,0.098953
1552637049.906083,0,0,0.016193,0.015622,0.098655
1552637049.924485,0,0,0.016638,0.016167,0.098928
1552637049.952194,0,0,0.016787,0.015994,0.099624
1552637049.970045,0,0,0.016688,0.015102,0.098456
1552637049.987995,0,0,0.016935,0.015721,0.099674
1552637050.006060,0,0,0.016984,0.015919,0.098432
1552637050.024591,0,0,0.016638,0.016117,0.099425
1552637050.071352,0,0,0.016515,0.015177,0.098481
1552637050.106896,0,0,0.016737,0.016216,0.098531
1552637050.124703,0,0,0.016589,0.015300,0.099202
1552637050.142651,0,0,0.016787,0.015474,0.099078
1552637050.160604,0,0,0.016663,0.016068,0.098680
1552637050.178397,0,0,0.016688,0.016043,0.099003
1552637050.196358,0,0,0.016663,0.015746,0.098829
1552637050.222933,0,0,0.016490,0.015944,0.099227
1552637050.269877,0,0,0.016614,0.015895,0.098705
1552637050.288173,0,0,0.016539,0.015523,0.098854
1552637050.306129,0,0,0.016614,0.015969,0.098705
1552637050.324037,0,0,0.016762,0.015895,0.098481
1552637050.342023,0,0,0.016663,0.015449,0.098978
1552637050.359938,0,0,0.016688,0.015177,0.098705
1552637050.379580,0,0,0.016688,0.015746,0.099252
1552637050.419800,0,0,0.016737,0.015201,0.099376
1552637050.437752,0,0,0.016564,0.015127,0.098581
1552637050.455987,0,0,0.016663,0.015474,0.098804
1552637050.474006,0,0,0.016737,0.015994,0.099028
1552637050.492023,0,0,0.016663,0.015994,0.099401
1552637050.509927,0,0,0.016638,0.015251,0.099276
1552637050.527872,0,0,0.016441,0.015276,0.099575
1552637050.554515,0,0,0.016366,0.016315,0.099376
1552637050.600305,0,0,0.017281,0.017207,0.104122
1552637050.618453,0,0,0.017973,0.013988,0.092964
1552637050.636424,0,0,0.014389,0.017950,0.104197
1552637050.654351,0,0,0.018048,0.014954,0.094331
1552637050.672356,0,0,0.015674,0.016464,0.101389
1552637050.690259,0,0,0.017602,0.013741,0.097040
1552637050.712878,0,0,0.015699,0.016266,0.097736
1552637050.748633,0,0,0.018839,0.015251,0.098630
1552637050.784413,0,0,0.017182,0.014731,0.099624
1552637050.802333,0,0,0.015452,0.016068,0.101041
1552637050.820294,0,0,0.017009,0.016266,0.096195
1552637050.838271,0,0,0.016960,0.016934,0.100544
1552637050.856190,0,0,0.016317,0.014681,0.098804
1552637050.874137,0,0,0.015130,0.013963,0.100842
1552637050.897382,0,0,0.017157,0.014657,0.095052
1552637050.950373,0,0,0.015996,0.017529,0.099202
1552637050.968295,0,0,0.019209,0.012156,0.097611
1552637050.986434,0,0,0.014339,0.016043,0.099177
1552637051.004566,0,0,0.016218,0.012329,0.100221
1552637051.023030,0,0,0.015551,0.019014,0.096021
1552637051.041574,0,0,0.019902,0.019286,0.102159
1552637051.059671,0,0,0.015773,0.014384,0.093983
1552637051.084030,0,0,0.016490,0.011810,0.103302
1552637051.119936,0,0,0.016935,0.016538,0.102855
1552637051.137998,0,0,0.017578,0.016588,0.089262
1552637051.155936,0,0,0.019036,0.018370,0.115926
1552637051.173854,0,0,0.015031,0.008987,0.074004
1552637051.191829,0,0,0.019803,0.024015,0.135433
1552637051.209749,0,0,0.014735,0.008393,0.085137
1552637051.232212,0,0,0.017800,0.023743,0.104396
1552637051.267817,0,0,0.006972,0.018123,0.107974
1552637051.303923,0,0,0.015180,0.019806,0.086826
1552637051.321992,0,0,0.011199,0.008319,0.092989
1552637051.339966,0,0,0.017800,0.013146,0.085808
1552637051.357911,0,0,0.021484,0.016093,0.103948
1552637051.375846,0,0,0.014487,0.023941,0.092070
1552637051.393791,0,0,0.019308,0.015598,0.104097
1552637051.413499,0,0,0.015748,0.011141,0.093486
1552637051.470212,0,0,0.023215,0.021143,0.097114
1552637051.505954,0,0,0.016243,0.017578,0.097462
1552637051.524340,0,0,0.016119,0.013963,0.098432
1552637051.542290,0,0,0.019531,0.023718,0.099276
1552637051.560189,0,0,0.013944,0.015845,0.101090
1552637051.578090,0,0,0.018567,0.013988,0.096568
1552637051.596083,0,0,0.015130,0.014211,0.099575
1552637051.615944,0,0,0.014166,0.015598,0.100420
1552637051.670225,0,0,0.017652,0.014681,0.100146
1552637051.688240,0,0,0.014487,0.015028,0.097661
1552637051.706319,0,0,0.016910,0.018123,0.097686
1552637051.724286,0,0,0.017726,0.015375,0.100892
1552637051.742208,0,0,0.014982,0.012726,0.098804
1552637051.760094,0,0,0.017405,0.017504,0.097139
1552637051.778002,0,0,0.015773,0.018816,0.099923
1552637051.800324,0,0,0.015056,0.015721,0.097959
1552637051.837640,0,0,0.018666,0.018172,0.098655
1552637051.855554,0,0,0.016589,0.018098,0.099202
1552637051.873590,0,0,0.016045,0.018073,0.097810
1552637051.891593,0,0,0.024500,0.012404,0.096717
1552637051.909544,0,0,0.015254,0.012651,0.099674
1552637051.927439,0,0,0.016416,0.015053,0.098357
1552637051.945335,0,0,0.017133,0.019534,0.098730
1552637051.972367,0,0,0.018196,0.017380,0.099475
1552637052.020715,0,0,0.016737,0.018519,0.098481
1552637052.039322,0,0,0.017232,0.017751,0.098680
1552637052.057655,0,0,0.015551,0.014830,0.099550
1552637052.075457,0,0,0.018394,0.013047,0.098009
1552637052.093223,0,0,0.016144,0.016588,0.098630
1552637052.111149,0,0,0.016243,0.017182,0.098307
1552637052.130707,0,0,0.015996,0.017207,0.101240
1552637052.170978,0,0,0.016836,0.016291,0.098755
1552637052.189300,0,0,0.016787,0.016860,0.097934
1552637052.207272,0,0,0.017479,0.017652,0.100196
1552637052.225167,0,0,0.017380,0.013914,0.097835
1552637052.243075,0,0,0.013845,0.015325,0.101115
1552637052.260966,0,0,0.018814,0.016192,0.097959
1552637052.283261,0,0,0.015328,0.017133,0.100892
1552637052.320723,0,0,0.016564,0.015078,0.101389
1552637052.338719,0,0,0.018542,0.015399,0.097090
1552637052.356784,0,0,0.015056,0.016142,0.100817
1552637052.374707,0,0,0.017207,0.014582,0.097264
1552637052.392665,0,0,0.016292,0.015177,0.101861
1552637052.410554,0,0,0.017553,0.014979,0.097711
1552637052.428501,0,0,0.014191,0.016860,0.101712
1552637052.448149,0,0,0.017578,0.015152,0.098307
1552637052.488180,0,0,0.016441,0.015152,0.097040
1552637052.506072,0,0,0.015204,0.017355,0.100718
1552637052.523845,0,0,0.017281,0.015498,0.095151
1552637052.541997,0,0,0.015155,0.016365,0.103004
1552637052.559961,0,0,0.016935,0.014261,0.089883
1552637052.577859,0,0,0.015872,0.018222,0.095524
1552637052.595874,0,0,0.018270,0.015721,0.091299
1552637052.617913,0,0,0.014413,0.016315,0.102482
1552637052.653860,0,0,0.012856,0.014087,0.094232
1552637052.689284,0,0,0.017751,0.017603,0.103352
1552637052.707442,0,0,0.018888,0.013765,0.096220
1552637052.725404,0,0,0.015551,0.016811,0.101215
1552637052.743280,0,0,0.018591,0.015078,0.095549
1552637052.761163,0,0,0.015724,0.016241,0.100842
1552637052.779067,0,0,0.019259,0.014459,0.097139
1552637052.810803,0,0,0.015081,0.015201,0.101886
1552637052.842230,0,0,0.015872,0.015300,0.099699
1552637052.860027,0,0,0.018814,0.014756,0.098928
1552637052.877956,0,0,0.015353,0.016142,0.100892
1552637052.895872,0,0,0.018245,0.015498,0.098928
1552637052.913821,0,0,0.014759,0.017603,0.101960
1552637052.931723,0,0,0.017825,0.014632,0.099177
1552637052.981148,0,0,0.016342,0.016959,0.098605
1552637052.999170,0,0,0.014685,0.014805,0.096593
1552637053.017520,0,0,0.014537,0.016588,0.097114
1552637053.036232,0,0,0.016267,0.016687,0.098133
1552637053.054297,0,0,0.016243,0.015598,0.097462
1552637053.072238,0,0,0.016515,0.015746,0.097910
1552637053.115616,0,0,0.014834,0.015622,0.097587
1552637053.151598,0,0,0.017429,0.015251,0.099923
1552637053.169507,0,0,0.017009,0.014904,0.097636
1552637053.187433,0,0,0.017182,0.016464,0.100494
1552637053.205407,0,0,0.017256,0.016613,0.098382
1552637053.223301,0,0,0.016663,0.016340,0.101190
1552637053.241172,0,0,0.017034,0.014483,0.098978
1552637053.288373,0,0,0.016836,0.015944,0.103700
1552637053.324319,0,0,0.015798,0.016241,0.100444
1552637053.342345,0,0,0.015600,0.014756,0.102358
1552637053.360067,0,0,0.016564,0.016117,0.096568
1552637053.378226,0,0,0.016169,0.017355,0.101115
1552637053.396058,0,0,0.017405,0.014582,0.097487
1552637053.413908,0,0,0.015847,0.015598,0.098332
1552637053.436459,0,0,0.017009,0.015994,0.099450
1552637053.490139,0,0,0.017009,0.014681,0.098084
1552637053.508311,0,0,0.016416,0.015449,0.098730
1552637053.526355,0,0,0.017207,0.016687,0.101463
1552637053.544598,0,0,0.016317,0.014805,0.096145
1552637053.562738,0,0,0.016292,0.015796,0.102581
1552637053.580694,0,0,0.016737,0.013963,0.094132
1552637053.598965,0,0,0.016515,0.016835,0.095549
1552637053.617664,0,0,0.017306,0.014632,0.101140
1552637053.658179,0,0,0.016317,0.014459,0.098605
1552637053.676208,0,0,0.016292,0.016514,0.097413
1552637053.694192,0,0,0.017380,0.016439,0.099947
1552637053.712376,0,0,0.016539,0.015895,0.098407
1552637053.730197,0,0,0.017083,0.015177,0.098208
1552637053.748003,0,0,0.015724,0.016167,0.100022
1552637053.766225,0,0,0.017232,0.016514,0.099152
1552637053.788185,0,0,0.016441,0.016167,0.100196
1552637053.825794,0,0,0.016663,0.014830,0.095797
1552637053.843806,0,0,0.015798,0.016514,0.102581
1552637053.861769,0,0,0.018048,0.015449,0.095102
1552637053.879957,0,0,0.015748,0.015870,0.100867
1552637053.897819,0,0,0.017355,0.013642,0.097040
1552637053.915687,0,0,0.015897,0.016514,0.098730
1552637053.933843,0,0,0.017380,0.015870,0.099699
1552637053.953118,0,0,0.015056,0.016415,0.098282
1552637054.010664,0,0,0.018690,0.020995,0.099972
1552637054.029571,0,0,0.007763,0.018568,0.101463
1552637054.047875,0,0,0.013647,0.008962,0.098282
1552637054.066223,0,0,0.017108,0.006437,0.100693
1552637054.084115,0,0,0.017108,0.010299,0.096270
1552637054.101784,0,0,0.018517,0.017925,0.099500
1552637054.120029,0,0,0.018443,0.021341,0.101314
1552637054.149137,0,0,0.016144,0.009185,0.098506
1552637054.182631,0,0,0.015377,0.017033,0.099699
1552637054.200649,0,0,0.016144,0.008046,0.101389
1552637054.218531,0,0,0.020816,0.016365,0.097139
1552637054.236730,0,0,0.006403,0.021242,0.095897
1552637054.254611,0,0,0.018666,0.020475,0.101140
1552637054.272410,0,0,0.016539,0.008913,0.098084
1552637054.319868,0,0,0.017009,0.025030,0.101836
1552637054.355791,0,0,0.012757,0.016588,0.101414
1552637054.373811,0,0,0.011175,0.008764,0.104296
1552637054.391633,0,0,0.016663,0.009755,0.103153
1552637054.409851,0,0,0.015526,0.013369,0.106384
1552637054.427728,0,0,0.014067,0.018519,0.109366
1552637054.445545,0,0,0.014932,0.020227,0.111602
1552637054.465723,0,0,0.015402,0.020202,0.111701
1552637054.520294,0,0,0.016020,0.016093,0.109937
1552637054.538296,0,0,0.018616,0.020821,0.107601
1552637054.556290,0,0,0.019012,0.021539,0.109117
1552637054.574468,0,0,0.029642,0.020747,0.111726
1552637054.592363,0,0,0.027121,0.021564,0.111403
1552637054.609951,0,0,0.028258,0.020574,0.113217
1552637054.628184,0,0,0.028975,0.019187,0.112969
1552637054.650229,0,0,0.028802,0.016167,0.113491
1552637054.688212,0,0,0.029717,0.017974,0.113988
1552637054.706296,0,0,0.026181,0.019806,0.112497
1552637054.724393,0,0,0.024698,0.018148,0.112323
1552637054.742631,0,0,0.023140,0.014706,0.111627
1552637054.760465,0,0,0.019877,0.012775,0.108347
1552637054.778474,0,0,0.016712,0.012379,0.106781
1552637054.796953,0,0,0.015452,0.013939,0.104569
1552637054.822072,0,0,0.015996,0.016093,0.103849
1552637054.858068,0,0,0.013869,0.016415,0.106930
1552637054.876091,0,0,0.010532,0.013716,0.107502
1552637054.893946,0,0,0.014042,0.013543,0.105390
1552637054.912228,0,0,0.015031,0.012528,0.105862
1552637054.930127,0,0,0.014487,0.013369,0.104495
1552637054.947942,0,0,0.013424,0.014855,0.104768
1552637054.967626,0,0,0.016070,0.016736,0.104470
1552637054.990198,0,0,0.018715,0.018024,0.103029
1552637055.031067,0,0,0.021014,0.021688,0.104843
1552637055.049478,0,0,0.025316,0.022282,0.106533
1552637055.067622,0,0,0.027590,0.021366,0.109266
1552637055.085954,0,0,0.028901,0.024461,0.107005
1552637055.103645,0,0,0.025143,0.024139,0.102954
1552637055.121459,0,0,0.021212,0.019856,0.100345
1552637055.148310,0,0,0.017701,0.016588,0.098481
1552637055.182307,0,0,0.015946,0.015325,0.094704
1552637055.200632,0,0,0.014661,0.015573,0.093188
1552637055.218502,0,0,0.014562,0.017875,0.092467
1552637055.236386,0,0,0.012979,0.020821,0.090629
1552637055.254546,0,0,0.012633,0.024040,0.087274
1552637055.272379,0,0,0.013993,0.025525,0.083099
1552637055.294364,0,0,0.015798,0.030056,0.082527
1552637055.332057,0,0,0.022226,0.031591,0.069705
1552637055.349999,0,0,0.020273,0.027531,0.066499
1552637055.368006,0,0,0.018641,0.023322,0.065430
1552637055.386189,0,0,0.015798,0.020178,0.064586
1552637055.404021,0,0,0.016094,0.023421,0.058348
1552637055.421803,0,0,0.013647,0.027060,0.049974
1552637055.440054,0,0,0.002077,0.028694,0.044606
1552637055.462022,0,0,0.005612,0.026491,0.046495
1552637055.499400,0,0,0.003881,0.018965,0.056832
1552637055.517414,0,0,0.001928,0.019039,0.061305
1552637055.535505,0,0,0.002225,0.018148,0.068562
1552637055.553718,0,0,0.010433,0.021069,0.079048
1552637055.571388,0,0,0.009716,0.027655,0.087945
1552637055.589193,0,0,0.010260,0.028992,0.093337
1552637055.607183,0,0,0.012188,0.030007,0.091995
1552637055.636573,0,0,0.019185,0.027877,0.092443
1552637055.680169,0,0,0.024525,0.017702,0.092368
1552637055.698188,0,0,0.024302,0.009210,0.090728
1552637055.716016,0,0,0.024797,-0.000713,0.096369
1552637055.734278,0,0,0.014735,-0.014390,0.104967
1552637055.752167,0,0,0.007244,-0.023663,0.113938
1552637055.769965,0,0,0.006453,-0.019679,0.112049
1552637055.789835,0,0,0.004673,-0.011684,0.112919
1552637055.829670,0,0,0.017850,0.007279,0.114410
1552637055.847951,0,0,0.030409,0.011017,0.110037
1552637055.866036,0,0,0.035749,0.008096,0.108272
1552637055.883893,0,0,0.048209,0.007601,0.107353
1552637055.902204,0,0,0.058049,0.011760,0.107104
1552637055.920047,0,0,0.058988,0.011611,0.105265
1552637055.937914,0,0,0.058296,0.006660,0.101811
1552637055.964699,0,0,0.060743,0.004704,0.096493
1552637056.010522,0,0,0.060941,0.000099,0.092070
1552637056.029327,0,0,0.051547,0.000149,0.087920
1552637056.047496,0,0,0.056516,0.006363,0.080987
1552637056.065858,0,0,0.050632,-0.008683,0.091175
1552637056.083739,0,0,0.056170,-0.007798,0.087522
1552637056.101480,0,0,0.050607,-0.006715,0.089187
1552637056.128084,0,0,0.047962,-0.006223,0.092194
1552637056.162323,0,0,0.047121,-0.003960,0.096170
1552637056.180695,0,0,0.044179,-0.002337,0.096667
1552637056.198552,0,0,0.042177,-0.001943,0.097214
1552637056.216379,0,0,0.040941,-0.002730,0.095922
1552637056.234521,0,0,0.039062,0.000371,0.087547
1552637056.252414,0,0,0.034587,-0.004600,0.101811
1552637056.273467,0,0,0.041485,-0.001132,0.094779
1552637056.319837,0,0,0.026107,-0.002140,0.097611
1552637056.338238,0,0,0.033450,-0.002411,0.093288
1552637056.355956,0,0,0.031620,0.000223,0.095499
1552637056.373761,0,0,0.028653,-0.000000,0.094157
1552637056.392120,0,0,0.029445,-0.001869,0.094878
1552637056.409994,0,0,0.030359,-0.003616,0.095499
1552637056.431968,0,0,0.028579,-0.004255,0.097512
1552637056.469426,0,0,0.028975,-0.003960,0.097562
1552637056.487454,0,0,0.029000,-0.002607,0.095027
1552637056.505455,0,0,0.028629,-0.002755,0.094853
1552637056.523646,0,0,0.027862,-0.005461,0.097338
1552637056.541467,0,0,0.028035,-0.007060,0.096990
1552637056.559650,0,0,0.026948,-0.006912,0.095996
1552637056.578150,0,0,0.026330,-0.006789,0.096443
1552637056.596855,0,0,0.026206,-0.007871,0.099202
1552637056.637219,0,0,0.028159,-0.009667,0.098605
1552637056.655292,0,0,0.025810,-0.007232,0.098258
1552637056.673313,0,0,0.025341,-0.007281,0.100270
1552637056.691392,0,0,0.025464,-0.005608,0.098432
1552637056.709275,0,0,0.023635,-0.003247,0.097835
1552637056.727092,0,0,0.021731,-0.001623,0.097363
1552637056.745353,0,0,0.020643,-0.001427,0.098233
1552637056.770815,0,0,0.022201,-0.001476,0.098059
1552637056.820345,0,0,0.021509,-0.004551,0.097885
1552637056.855940,0,0,0.022077,-0.005953,0.095126
1552637056.874196,0,0,0.023066,-0.007379,0.094182
1552637056.892162,0,0,0.023289,-0.009028,0.092269
1552637056.910009,0,0,0.021632,-0.011881,0.090902
1552637056.928182,0,0,0.020668,-0.013455,0.091051
1552637056.946021,0,0,0.021113,-0.015103,0.089933
1552637056.974949,0,0,0.017825,-0.015300,0.088591
1552637057.020282,0,0,0.018369,-0.010946,0.094878
1552637057.039293,0,0,0.018196,-0.010356,0.095375
1552637057.057418,0,0,0.018888,-0.009421,0.095276
1552637057.075316,0,0,0.018789,-0.010134,0.096667
1552637057.093238,0,0,0.018814,-0.011266,0.098804
1552637057.110971,0,0,0.018913,-0.012668,0.099947
1552637057.157597,0,0,0.017380,-0.015546,0.100519
1552637057.175408,0,0,0.016169,-0.019310,0.101960
1552637057.202204,0,0,0.015476,-0.020097,0.101637
1552637057.220068,0,0,0.015452,-0.021646,0.100593
1552637057.238247,0,0,0.016688,-0.021081,0.100444
1552637057.256116,0,0,0.016267,-0.020023,0.099450
1552637057.273942,0,0,0.016292,-0.020466,0.098258
1552637057.316079,0,0,0.016762,-0.020761,0.092269
1552637057.333895,0,0,0.014413,-0.022040,0.089013
1552637057.362358,0,0,0.011397,-0.023713,0.085634
1552637057.380219,0,0,0.008134,-0.026000,0.083347
1552637057.398474,0,0,0.006551,-0.029100,0.081981
1552637057.416295,0,0,0.004425,-0.030797,0.081533
1552637057.434105,0,0,0.002695,-0.031781,0.080490
1552637057.455721,0,0,0.001928,-0.032371,0.081782
1552637057.499981,0,0,0.000692,-0.033429,0.087000
1552637057.535659,0,0,0.003906,-0.033527,0.089684
1552637057.553774,0,0,0.008603,-0.031904,0.089734
1552637057.571704,0,0,0.012238,-0.030994,0.089833
1552637057.589616,0,0,0.013795,-0.031707,0.091101
1552637057.607527,0,0,0.020273,-0.027968,0.089361
1552637057.625456,0,0,0.026231,-0.023442,0.092617
1552637057.652445,0,0,0.026972,-0.026271,0.098133
1552637057.699886,0,0,0.026972,-0.028239,0.095102
1552637057.718198,0,0,0.025761,-0.026640,0.096270
1552637057.736084,0,0,0.025341,-0.027378,0.103153
1552637057.753979,0,0,0.023536,-0.033331,0.100320
1552637057.771988,0,0,0.021830,-0.035495,0.101438
1552637057.789959,0,0,0.024550,-0.032814,0.098382
1552637057.816210,0,0,0.019185,-0.027919,0.097264
1552637057.859749,0,0,0.009197,-0.027452,0.090479
1552637057.896113,0,0,0.013721,-0.026222,0.090132
1552637057.914339,0,0,0.022893,-0.026074,0.093288
1552637057.932113,0,0,0.018542,-0.026738,0.095027
1552637057.949921,0,0,0.021187,-0.027476,0.097934
1552637057.967709,0,0,0.021830,-0.024008,0.100221
1552637057.985385,0,0,0.019630,-0.021204,0.102159
1552637058.004872,0,0,0.016441,-0.019064,0.105887
1552637058.041433,0,0,0.012584,-0.022483,0.102557
1552637058.077591,0,0,0.006230,-0.021179,0.103178
1552637058.096146,0,0,0.005291,-0.020171,0.099177
1552637058.114145,0,0,0.005216,-0.021523,0.095872
1552637058.132249,0,0,0.006008,-0.032666,0.086653
1552637058.150044,0,0,0.015921,-0.039210,0.086305
1552637058.168006,0,0,0.016638,-0.036381,0.090778
1552637058.187629,0,0,0.016416,-0.030502,0.092766
1552637058.228192,0,0,0.016861,-0.040907,0.085832
1552637058.246326,0,0,0.017701,-0.042629,0.088765
1552637058.264378,0,0,0.010730,-0.039357,0.090107
1552637058.282330,0,0,0.017454,-0.025828,0.090231
1552637058.300237,0,0,0.016490,-0.044351,0.085733
1552637058.318148,0,0,0.016465,-0.052763,0.086976
1552637058.336075,0,0,0.010186,-0.054091,0.089411
1552637058.362354,0,0,0.006106,-0.055395,0.104048
1552637058.410409,0,0,-0.013491,-0.131330,0.098630
1552637058.428605,0,0,-0.003423,-0.063685,0.069978
1552637058.446556,0,0,0.028530,-0.073352,0.069705
1552637058.464487,0,0,0.010680,-0.063070,0.069854
1552637058.482500,0,0,0.015229,-0.048852,0.077383
1552637058.500490,0,0,0.010062,-0.041128,0.077905
1552637058.523271,0,0,0.005019,-0.063217,0.077110
1552637058.569911,0,0,0.020421,-0.051017,0.079893
1552637058.588078,0,0,0.027986,-0.071458,0.080664
1552637058.606215,0,0,0.007565,-0.053796,0.082006
1552637058.624163,0,0,0.002818,-0.048311,0.075793
1552637058.642118,0,0,0.007318,-0.048581,0.082627
1552637058.659993,0,0,0.009073,-0.050180,0.086951
1552637058.677914,0,0,0.018616,-0.051238,0.083894
1552637058.700183,0,0,0.014661,-0.049196,0.092567
1552637058.737581,0,0,0.008406,-0.026763,0.096568
1552637058.755674,0,0,0.009222,-0.031289,0.104271
1552637058.773751,0,0,0.008653,-0.029838,0.095300
1552637058.791753,0,0,0.003041,-0.034708,0.096369
1552637058.809727,0,0,-0.001686,-0.032666,0.089088
1552637058.827607,0,0,0.008925,-0.032371,0.094182
1552637058.845508,0,0,0.020099,-0.038644,0.088268
1552637058.874728,0,0,0.004030,-0.033798,0.095002
1552637058.920206,0,0,0.015155,-0.049172,0.087398
1552637058.938101,0,0,0.015328,-0.052640,0.083994
1552637058.956027,0,0,0.001656,-0.037512,0.081335
1552637058.973939,0,0,0.001879,-0.009642,0.092169
1552637058.991680,0,0,0.023783,-0.018572,0.110409
1552637059.009823,0,0,0.007590,-0.046614,0.107725
1552637059.030102,0,0,0.003313,-0.060708,0.088317
1552637059.071798,0,0,0.012856,-0.025730,0.098730
1552637059.090295,0,0,0.004475,-0.034880,0.082552
1552637059.108442,0,0,0.003956,-0.048040,0.080365
1552637059.126399,0,0,0.015007,-0.037020,0.107552
1552637059.144369,0,0,0.008628,-0.018080,0.106756
1552637059.162289,0,0,0.016960,-0.029346,0.102109
1552637059.180202,0,0,0.013474,-0.037143,0.095151
1552637059.199919,0,0,0.014191,-0.034806,0.094356
1552637059.240001,0,0,0.001335,-0.037168,0.084565
1552637059.258356,0,0,0.021632,-0.048680,0.099823
1552637059.276482,0,0,0.013993,-0.033011,0.082453
1552637059.294461,0,0,0.008678,-0.032420,0.101066
1552637059.312390,0,0,0.013696,-0.033134,0.090107
1552637059.330293,0,0,0.009345,-0.040587,0.086280
1552637059.348272,0,0,0.009543,-0.038299,0.094853
1552637059.370736,0,0,0.020989,-0.042211,0.096021
1552637059.407946,0,0,0.010532,-0.036578,0.068338
1552637059.426427,0,0,0.009889,-0.030699,0.089088
1552637059.444531,0,0,0.019803,-0.033896,0.097239
1552637059.462431,0,0,0.021880,-0.036332,0.098034
1552637059.480353,0,0,0.025588,-0.019162,0.125717
1552637059.498312,0,0,0.020223,-0.018695,0.098208
1552637059.516216,0,0,0.011916,-0.004895,0.084988
1552637059.538895,0,0,0.019383,-0.022852,0.102209
1552637059.575113,0,0,0.014735,-0.026197,0.101289
1552637059.611198,0,0,0.015031,-0.021302,0.095698
1552637059.629252,0,0,0.015897,-0.021819,0.095971
1552637059.647178,0,0,0.013672,-0.020687,0.097015
1552637059.665100,0,0,0.014290,-0.021154,0.093735
1552637059.683024,0,0,0.014586,-0.019974,0.095797
1552637059.700977,0,0,0.015303,-0.022680,0.101215
1552637059.720595,0,0,0.013820,-0.019679,0.098158
1552637059.760813,0,0,0.008950,-0.015546,0.083546
1552637059.779145,0,0,0.024772,-0.027427,0.110061
1552637059.797245,0,0,0.012262,-0.022729,0.089411
1552637059.815243,0,0,0.015204,-0.019605,0.097015
1552637059.833097,0,0,0.015600,-0.020982,0.094530
1552637059.851179,0,0,0.016193,-0.022630,0.097239
1552637059.869189,0,0,0.015526,-0.020908,0.095276
1552637059.891836,0,0,0.014759,-0.021696,0.096717
1552637059.929129,0,0,0.015007,-0.020736,0.095897
1552637059.947500,0,0,0.016094,-0.021991,0.096717
1552637059.965593,0,0,0.015204,-0.021327,0.096195
1552637059.983516,0,0,0.014364,-0.022138,0.096543
1552637060.001519,0,0,0.015748,-0.021769,0.096443
1552637060.019937,0,0,0.015130,-0.020859,0.095201
1552637060.038399,0,0,0.016218,-0.023073,0.096443
1552637060.060466,0,0,0.014463,-0.021671,0.089336
1552637060.096356,0,0,0.015353,-0.023024,0.096518
1552637060.114795,0,0,0.014784,-0.021327,0.096220
1552637060.142331,0,0,0.015748,-0.022335,0.096717
1552637060.160233,0,0,0.014982,-0.020269,0.089560
1552637060.178147,0,0,0.017281,-0.023860,0.098481
1552637060.196154,0,0,0.015773,-0.022507,0.091697
1552637060.214181,0,0,0.014191,-0.020662,0.097611
1552637060.260806,0,0,0.014982,-0.020835,0.096394
1552637060.296509,0,0,0.018443,-0.020736,0.088839
1552637060.314625,0,0,0.011916,-0.022384,0.079073
1552637060.332576,0,0,0.009592,-0.020023,0.101513
1552637060.350492,0,0,0.020495,-0.016924,0.108869
1552637060.368415,0,0,0.019234,-0.020121,0.108496
1552637060.386320,0,0,0.014166,-0.012324,0.116870
1552637060.408674,0,0,0.001582,-0.015817,0.111229
1552637060.444884,0,0,0.013548,-0.023319,0.098605
1552637060.480555,0,0,-0.000881,-0.006396,0.079371
1552637060.498932,0,0,0.006675,-0.019457,0.089958
1552637060.516857,0,0,0.022349,-0.022532,0.097537
1552637060.534759,0,0,0.013400,-0.033183,0.092244
1552637060.552680,0,0,0.019852,-0.021302,0.089287
1552637060.570604,0,0,0.007565,-0.024451,0.091523
1552637060.592264,0,0,-0.000277,-0.019826,0.098456
1552637060.630570,0,0,-0.016059,-0.017563,0.087647
1552637060.648685,0,0,-0.020992,-0.015029,0.088243
1552637060.666756,0,0,-0.013089,-0.019039,0.079297
1552637060.684493,0,0,-0.008835,-0.019556,0.086677
1552637060.702470,0,0,-0.016537,-0.049615,0.082503
1552637060.720361,0,0,0.002893,-0.042358,0.081807
1552637060.738263,0,0,0.030508,-0.036036,0.123779
1552637060.760449,0,0,-0.014876,-0.008142,0.090504
1552637060.796464,0,0,-0.011276,-0.068358,0.076141
1552637060.814632,0,0,-0.017443,-0.049172,0.091995
1552637060.842309,0,0,-0.044098,-0.050992,0.076712
1552637060.860348,0,0,-0.041002,-0.049073,0.074675
1552637060.878294,0,0,-0.038334,-0.048508,0.075843
1552637060.895997,0,0,-0.035314,-0.044916,0.083621
1552637060.914010,0,0,-0.034911,-0.052173,0.085485
1552637060.936404,0,0,-0.025951,-0.054387,0.083223
1552637060.990420,0,0,-0.023081,-0.060044,0.077607
1552637061.008894,0,0,-0.029802,-0.047696,0.077334
1552637061.027755,0,0,-0.038964,-0.035864,0.079421
1552637061.046546,0,0,-0.036019,-0.035003,0.073482
1552637061.064937,0,0,-0.033980,-0.029247,0.091697
1552637061.082989,0,0,-0.038536,-0.038767,0.083521
1552637061.100798,0,0,-0.043318,-0.058691,0.079347
1552637061.128939,0,0,-0.031589,-0.036086,0.081310
1552637061.170195,0,0,-0.028241,-0.042850,0.102035
1552637061.188355,0,0,-0.020967,-0.045334,0.098382
1552637061.206340,0,0,-0.018626,-0.040759,0.095549
1552637061.224301,0,0,-0.024163,-0.033429,0.087323
1552637061.242236,0,0,-0.031916,-0.040341,0.092269
1552637061.260136,0,0,-0.036874,-0.034880,0.084913
1552637061.279892,0,0,-0.031412,-0.033552,0.089982
1552637061.316431,0,0,-0.024793,-0.025385,0.087522
1552637061.334450,0,0,-0.028518,-0.017465,0.086702
1552637061.362294,0,0,-0.030884,-0.008732,0.075793
1552637061.380222,0,0,-0.023836,-0.000172,0.063318
1552637061.398143,0,0,-0.018500,0.013617,0.077632
1552637061.416106,0,0,-0.015832,-0.045949,0.078924
1552637061.434009,0,0,-0.004203,-0.087865,0.079893
1552637061.456361,0,0,-0.058143,-0.063906,0.100196
1552637061.510253,0,0,-0.016134,-0.050303,0.083869
1552637061.545817,0,0,-0.017292,-0.055592,0.087075
1552637061.564149,0,0,-0.014272,-0.050869,0.084217
1552637061.582127,0,0,-0.006569,-0.045999,0.086603
1552637061.600033,0,0,-0.011528,-0.054264,0.084515
1552637061.618012,0,0,-0.014649,-0.048212,0.084863
1552637061.635929,0,0,-0.030280,-0.049787,0.086503
1552637061.662398,0,0,-0.014850,-0.047647,0.087125
1552637061.709964,0,0,-0.016688,-0.048729,0.086354
1552637061.728145,0,0,-0.016134,-0.047253,0.086777
1552637061.746075,0,0,-0.015908,-0.048139,0.086006
1552637061.763986,0,0,-0.016008,-0.047991,0.086106
1552637061.781972,0,0,-0.016361,-0.045851,0.085882
1552637061.799870,0,0,-0.015555,-0.048680,0.084764
1552637061.825876,0,0,-0.016335,-0.047745,0.083994
1552637061.869952,0,0,-0.015908,-0.048950,0.085584
1552637061.888382,0,0,-0.015329,-0.047573,0.085932
1552637061.906338,0,0,-0.016084,-0.047327,0.084391
1552637061.924355,0,0,-0.016688,-0.047893,0.084341
1552637061.942203,0,0,-0.016965,-0.046441,0.086230
1552637061.960141,0,0,-0.015882,-0.048385,0.085783
1552637061.989699,0,0,-0.015933,-0.047573,0.085186
1552637062.030594,0,0,-0.015757,-0.046810,0.085808
1552637062.049539,0,0,-0.016134,-0.047007,0.083919
1552637062.067571,0,0,-0.015857,-0.048532,0.084988
1552637062.085513,0,0,-0.016235,-0.047130,0.086106
1552637062.103444,0,0,-0.015908,-0.048680,0.085982
1552637062.121411,0,0,-0.016436,-0.048360,0.085733
1552637062.141077,0,0,-0.015882,-0.046294,0.084814
1552637062.177982,0,0,-0.015606,-0.047819,0.086106
1552637062.213673,0,0,-0.016210,-0.048016,0.084739
1552637062.232127,0,0,-0.015706,-0.046515,0.085485
1552637062.250049,0,0,-0.015807,-0.048926,0.085137
1552637062.267994,0,0,-0.017997,-0.048434,0.081981
1552637062.285901,0,0,-0.016361,-0.046097,0.083372
1552637062.303851,0,0,-0.014297,-0.049369,0.083969
1552637062.326315,0,0,-0.017468,-0.045703,0.086503
1552637062.380448,0,0,-0.016940,-0.044400,0.085485
1552637062.416123,0,0,-0.014951,-0.047253,0.083894
1552637062.434477,0,0,-0.016864,-0.045949,0.084640
1552637062.452477,0,0,-0.017594,-0.046318,0.086628
1552637062.470444,0,0,-0.015178,-0.049295,0.085012
1552637062.488350,0,0,-0.015983,-0.047843,0.086603
1552637062.506301,0,0,-0.016436,-0.048508,0.084863
1552637062.528713,0,0,-0.015958,-0.048778,0.085236
1552637062.580490,0,0,-0.015706,-0.048360,0.084366
1552637062.598687,0,0,-0.016386,-0.045408,0.085832
1552637062.616635,0,0,-0.015958,-0.049073,0.085758
1552637062.634708,0,0,-0.015656,-0.048016,0.086230
1552637062.652626,0,0,-0.016260,-0.046318,0.085335
1552637062.670496,0,0,-0.016109,-0.048089,0.084317
1552637062.690010,0,0,-0.016587,-0.047155,0.083521
1552637062.730254,0,0,-0.015933,-0.047032,0.084714
1552637062.748653,0,0,-0.015606,-0.048581,0.085708
1552637062.766747,0,0,-0.017065,-0.048704,0.086305
1552637062.784408,0,0,-0.016889,-0.047401,0.086006
1552637062.802343,0,0,-0.015656,-0.047647,0.085957
1552637062.820274,0,0,-0.015077,-0.047598,0.086479
1552637062.838240,0,0,-0.016159,-0.046171,0.084540
1552637062.860946,0,0,-0.016587,-0.048040,0.084689
1552637062.896848,0,0,-0.016436,-0.046441,0.085311
1552637062.915220,0,0,-0.016109,-0.047524,0.084838
1552637062.942392,0,0,-0.016461,-0.046564,0.084341
1552637062.960332,0,0,-0.016335,-0.048901,0.085311
1552637062.978245,0,0,-0.015908,-0.047475,0.084515
1552637062.995911,0,0,-0.015631,-0.047573,0.086230
1552637063.014116,0,0,-0.016361,-0.047720,0.085485
1552637063.034546,0,0,-0.015782,-0.048975,0.084491
1552637063.090487,0,0,-0.021999,-0.046318,0.083894
1552637063.126207,0,0,-0.016889,-0.044818,0.080365
1552637063.144622,0,0,-0.015857,-0.052788,0.084093
1552637063.162585,0,0,-0.016612,-0.045703,0.087597
1552637063.180496,0,0,-0.016889,-0.049787,0.086180
1552637063.198308,0,0,-0.016940,-0.045876,0.085485
1552637063.216228,0,0,-0.016587,-0.047376,0.084963
1552637063.238630,0,0,-0.015681,-0.048016,0.085534
1552637063.274827,0,0,-0.016310,-0.046663,0.084416
1552637063.310495,0,0,-0.016889,-0.048114,0.086628
1552637063.328848,0,0,-0.015958,-0.047056,0.086280
1552637063.346857,0,0,-0.015404,-0.049098,0.084068
1552637063.364758,0,0,-0.016285,-0.046097,0.085534
1552637063.382674,0,0,-0.016361,-0.048163,0.085957
1552637063.400577,0,0,-0.015882,-0.049787,0.083521
1552637063.422780,0,0,-0.016663,-0.046048,0.084565
1552637063.460339,0,0,-0.016638,-0.050131,0.083994
1552637063.478426,0,0,-0.016310,-0.045777,0.084143
1552637063.496486,0,0,-0.015555,-0.048114,0.086305
1552637063.514424,0,0,-0.015882,-0.047179,0.085012
1552637063.532378,0,0,-0.017040,-0.047302,0.084913
1552637063.550323,0,0,-0.017267,-0.045162,0.085162
1552637063.568227,0,0,-0.016638,-0.048581,0.083397
1552637063.590422,0,0,-0.016688,-0.046072,0.086329
1552637063.626379,0,0,-0.016839,-0.048483,0.085261
1552637063.644530,0,0,-0.016335,-0.048975,0.085957
1552637063.672334,0,0,-0.016361,-0.047179,0.085311
1552637063.690359,0,0,-0.015555,-0.047622,0.085857
1552637063.708312,0,0,-0.015580,-0.049885,0.085236
1552637063.726225,0,0,-0.015631,-0.046638,0.085932
1552637063.744188,0,0,-0.015530,-0.047130,0.084814
1552637063.766344,0,0,-0.014800,-0.048286,0.085882
1552637063.820434,0,0,-0.016008,-0.049369,0.084043
1552637063.838374,0,0,-0.016889,-0.045211,0.086727
1552637063.856463,0,0,-0.016487,-0.049024,0.086578
1552637063.874376,0,0,-0.016386,-0.047327,0.086081
1552637063.892364,0,0,-0.016386,-0.045679,0.084938
1552637063.910275,0,0,-0.015354,-0.047475,0.086951
1552637063.928288,0,0,-0.015958,-0.047007,0.083994
1552637063.950466,0,0,-0.016587,-0.046294,0.084963
1552637063.986507,0,0,-0.016436,-0.047450,0.084689
1552637064.004728,0,0,-0.016864,-0.046638,0.087572
1552637064.033033,0,0,-0.016839,-0.046712,0.084590
1552637064.051097,0,0,-0.016184,-0.044597,0.084540
1552637064.069338,0,0,-0.016260,-0.049565,0.084018
1552637064.087363,0,0,-0.015681,-0.046933,0.086379
1552637064.105356,0,0,-0.015555,-0.049123,0.085708
1552637064.124216,0,0,-0.015731,-0.047843,0.084192
1552637064.160392,0,0,-0.016285,-0.049295,0.083671
1552637064.196091,0,0,-0.016789,-0.046491,0.085211
1552637064.214419,0,0,-0.015656,-0.047770,0.085559
1552637064.232435,0,0,-0.016084,-0.045384,0.086603
1552637064.250222,0,0,-0.015077,-0.047598,0.086628
1552637064.268176,0,0,-0.016487,-0.047548,0.084988
1552637064.286101,0,0,-0.017015,-0.045753,0.085261
1552637064.308544,0,0,-0.016335,-0.046835,0.084938
1552637064.346087,0,0,-0.016059,-0.049147,0.083820
1552637064.364206,0,0,-0.016461,-0.045802,0.086305
1552637064.382294,0,0,-0.015832,-0.050426,0.084988
1552637064.400229,0,0,-0.016235,-0.047130,0.086976
1552637064.418133,0,0,-0.015555,-0.047081,0.085584
1552637064.436041,0,0,-0.015329,-0.048926,0.083521
1552637064.454000,0,0,-0.016285,-0.045630,0.085261
1552637064.476446,0,0,-0.016134,-0.050525,0.084863
1552637064.530359,0,0,-0.016210,-0.047302,0.085435
1552637064.566097,0,0,-0.015983,-0.049664,0.086280
1552637064.584445,0,0,-0.015782,-0.047278,0.084217
1552637064.602365,0,0,-0.015555,-0.047425,0.085783
1552637064.620326,0,0,-0.016763,-0.045531,0.085137
1552637064.638258,0,0,-0.016461,-0.050426,0.085584
1552637064.656232,0,0,-0.016512,-0.046122,0.083695
1552637064.678327,0,0,-0.015455,-0.046048,0.086528
1552637064.715950,0,0,-0.016411,-0.048532,0.085460
1552637064.734060,0,0,-0.016235,-0.046122,0.086354
1552637064.752200,0,0,-0.014825,-0.047475,0.086528
1552637064.770122,0,0,-0.015832,-0.049615,0.084515
1552637064.788039,0,0,-0.017317,-0.045162,0.084466
1552637064.805922,0,0,-0.015757,-0.048508,0.085012
1552637064.823886,0,0,-0.016638,-0.049442,0.085534
1552637064.870638,0,0,-0.016235,-0.046638,0.085832
1552637064.906180,0,0,-0.015983,-0.049344,0.084888
1552637064.924321,0,0,-0.015379,-0.047007,0.086677
1552637064.942247,0,0,-0.015580,-0.047278,0.085162
1552637064.960211,0,0,-0.016814,-0.046564,0.084366
1552637064.978123,0,0,-0.015882,-0.045703,0.084764
1552637064.996059,0,0,-0.015983,-0.049442,0.084143
1552637065.019278,0,0,-0.016940,-0.045605,0.087398
1552637065.055932,0,0,-0.015807,-0.049442,0.086081
1552637065.074131,0,0,-0.016033,-0.046589,0.086752
1552637065.102392,0,0,-0.016738,-0.047278,0.086777
1552637065.120311,0,0,-0.016738,-0.047819,0.086156
1552637065.138186,0,0,-0.015757,-0.048901,0.085112
1552637065.156136,0,0,-0.016260,-0.044843,0.084963
1552637065.173990,0,0,-0.014725,-0.048655,0.086976
1552637065.193619,0,0,-0.016084,-0.047032,0.084018
1552637065.229614,0,0,-0.016763,-0.049270,0.085062
1552637065.265343,0,0,-0.016285,-0.049073,0.086901
1552637065.283626,0,0,-0.015857,-0.049713,0.085037
1552637065.301354,0,0,-0.016310,-0.045630,0.083969
1552637065.319270,0,0,-0.016033,-0.046835,0.084689
1552637065.337166,0,0,-0.015757,-0.049319,0.084764
1552637065.355098,0,0,-0.016361,-0.046761,0.086727
1552637065.377420,0,0,-0.016361,-0.049147,0.086305
1552637065.430414,0,0,-0.016487,-0.047155,0.086106
1552637065.448501,0,0,-0.015379,-0.047598,0.084043
1552637065.466691,0,0,-0.017040,-0.045949,0.086528
1552637065.484678,0,0,-0.016210,-0.049492,0.085385
1552637065.502626,0,0,-0.016159,-0.047720,0.084391
1552637065.520393,0,0,-0.015933,-0.047598,0.085857
1552637065.538296,0,0,-0.015304,-0.047573,0.085857
1552637065.558030,0,0,-0.016184,-0.045679,0.084913
1552637065.598885,0,0,-0.016134,-0.049098,0.086106
1552637065.617050,0,0,-0.016487,-0.046860,0.083397
1552637065.635126,0,0,-0.016537,-0.048926,0.084963
1552637065.653088,0,0,-0.016134,-0.050033,0.085832
1552637065.671358,0,0,-0.016235,-0.048163,0.086081
1552637065.689328,0,0,-0.015329,-0.047843,0.086180
1552637065.707391,0,0,-0.016789,-0.048754,0.084242
1552637065.729080,0,0,-0.016436,-0.045974,0.085857
1552637065.766595,0,0,-0.016864,-0.045088,0.083869
1552637065.784701,0,0,-0.016184,-0.046072,0.086503
1552637065.802764,0,0,-0.017065,-0.047770,0.086503
1552637065.820682,0,0,-0.015882,-0.048852,0.084863
1552637065.838601,0,0,-0.016260,-0.044523,0.085534
1552637065.856532,0,0,-0.015127,-0.048901,0.083969
1552637065.874511,0,0,-0.016688,-0.045556,0.086280
1552637065.896897,0,0,-0.016461,-0.049369,0.086329
1552637065.950270,0,0,-0.015983,-0.046860,0.085957
1552637065.985982,0,0,-0.015203,-0.049615,0.084888
1552637066.004465,0,0,-0.016335,-0.048827,0.084665
1552637066.022982,0,0,-0.015882,-0.048606,0.083546
1552637066.041495,0,0,-0.016386,-0.046687,0.085783
1552637066.059652,0,0,-0.015027,-0.048434,0.086031
1552637066.077710,0,0,-0.016864,-0.049073,0.085758
1552637066.105764,0,0,-0.016361,-0.044990,0.086851
1552637066.150040,0,0,-0.016487,-0.047843,0.086677
1552637066.168485,0,0,-0.015832,-0.049418,0.085162
1552637066.186419,0,0,-0.016109,-0.045138,0.085584
1552637066.204365,0,0,-0.014926,-0.047253,0.087920
1552637066.222273,0,0,-0.015882,-0.046860,0.083944
1552637066.240171,0,0,-0.017116,-0.047106,0.085137
1552637066.262524,0,0,-0.016008,-0.048434,0.084913
1552637066.300169,0,0,-0.016059,-0.047081,0.085385
1552637066.318278,0,0,-0.015757,-0.049541,0.086106
1552637066.336335,0,0,-0.016210,-0.045236,0.085186
1552637066.353980,0,0,-0.016084,-0.046466,0.085659
1552637066.372051,0,0,-0.015731,-0.047548,0.083869
1552637066.389938,0,0,-0.016436,-0.047696,0.085112
1552637066.407841,0,0,-0.015530,-0.046737,0.086752
1552637066.430031,0,0,-0.016411,-0.051066,0.085360
1552637066.466095,0,0,-0.016461,-0.045088,0.087100
1552637066.484296,0,0,-0.016184,-0.049836,0.083894
1552637066.512336,0,0,-0.016361,-0.049418,0.085211
1552637066.530247,0,0,-0.016210,-0.046072,0.085410
1552637066.548195,0,0,-0.015102,-0.047352,0.084192
1552637066.565912,0,0,-0.015857,-0.046466,0.084665
1552637066.583868,0,0,-0.017015,-0.046884,0.086702
1552637066.603150,0,0,-0.015908,-0.050057,0.085733
1552637066.660424,0,0,-0.014850,-0.050303,0.083646
1552637066.678540,0,0,-0.016310,-0.045408,0.085311
1552637066.696620,0,0,-0.015958,-0.048557,0.084491
1552637066.714634,0,0,-0.015983,-0.048360,0.083099
1552637066.732565,0,0,-0.016386,-0.047770,0.085037
1552637066.750437,0,0,-0.015782,-0.048926,0.085311
1552637066.768250,0,0,-0.016134,-0.046491,0.085957
1552637066.790585,0,0,-0.016059,-0.046540,0.085435
1552637066.826565,0,0,-0.015656,-0.047130,0.084267
1552637066.844686,0,0,-0.016940,-0.046392,0.084640
1552637066.872370,0,0,-0.016335,-0.046737,0.087373
1552637066.890331,0,0,-0.016033,-0.048631,0.083646
1552637066.908279,0,0,-0.016688,-0.046220,0.085236
1552637066.926174,0,0,-0.015757,-0.046687,0.085758
1552637066.944076,0,0,-0.016285,-0.049418,0.086056
1552637066.966392,0,0,-0.016008,-0.047204,0.086354
1552637067.021001,0,0,-0.015027,-0.046712,0.083844
1552637067.057388,0,0,-0.015782,-0.052493,0.083944
1552637067.076000,0,0,-0.016990,-0.046072,0.087348
1552637067.094025,0,0,-0.015832,-0.050402,0.084341
1552637067.114833,0,0,-0.016562,-0.046712,0.084963
1552637067.133016,0,0,-0.016084,-0.046441,0.085733
1552637067.150833,0,0,-0.015354,-0.047204,0.084242
1552637067.177057,0,0,-0.015455,-0.047450,0.085957
1552637067.220033,0,0,-0.015807,-0.046072,0.085460
1552637067.238338,0,0,-0.014926,-0.045310,0.085584
1552637067.256285,0,0,-0.017242,-0.048311,0.083795
1552637067.274260,0,0,-0.016914,-0.045359,0.086826
1552637067.292232,0,0,-0.016612,-0.049934,0.086156
1552637067.310222,0,0,-0.016487,-0.045064,0.086727
1552637067.357472,0,0,-0.017292,-0.046491,0.088144
1552637067.392376,0,0,-0.016864,-0.047155,0.086826
1552637067.410793,0,0,-0.015555,-0.048606,0.083596
1552637067.428740,0,0,-0.016713,-0.048188,0.084143
1552637067.446648,0,0,-0.016562,-0.050377,0.085112
1552637067.464611,0,0,-0.015127,-0.045236,0.087125
1552637067.482582,0,0,-0.015052,-0.049910,0.085112
1552637067.529635,0,0,-0.016285,-0.049762,0.085534
1552637067.565392,0,0,-0.015404,-0.046737,0.086255
1552637067.583888,0,0,-0.015102,-0.047007,0.084913
1552637067.601817,0,0,-0.016184,-0.048262,0.083273
1552637067.619580,0,0,-0.016008,-0.044523,0.086951
1552637067.637535,0,0,-0.015832,-0.049369,0.085758
1552637067.655524,0,0,-0.016361,-0.045457,0.086677
1552637067.678013,0,0,-0.015731,-0.045876,0.085037
1552637067.714255,0,0,-0.015278,-0.049172,0.085758
1552637067.749969,0,0,-0.017166,-0.051656,0.094779
1552637067.768300,0,0,-0.009237,-0.043268,0.090529
1552637067.786298,0,0,-0.019431,-0.054165,0.100295
1552637067.804259,0,0,-0.016361,-0.039480,0.083994
1552637067.822093,0,0,-0.022729,-0.059380,0.082179
1552637067.840033,0,0,-0.008709,-0.038053,0.088566
1552637067.859870,0,0,-0.017644,-0.045556,0.082204
1552637067.909913,0,0,-0.017921,-0.047770,0.083173
1552637067.928315,0,0,-0.015052,-0.050328,0.084491
1552637067.946413,0,0,-0.013567,-0.045900,0.080738
1552637067.964381,0,0,-0.012761,-0.046737,0.085509
1552637067.982316,0,0,-0.015152,-0.050205,0.082900
1552637068.000279,0,0,-0.024994,-0.046540,0.085659
1552637068.018616,0,0,-0.016638,-0.047696,0.084118
1552637068.042050,0,0,-0.014423,-0.045580,0.085062
1552637068.079396,0,0,-0.015958,-0.047893,0.083919
1552637068.097851,0,0,-0.019457,-0.049049,0.083994
1552637068.115985,0,0,-0.018576,-0.045876,0.086379
1552637068.133909,0,0,-0.014825,-0.049344,0.086802
1552637068.151839,0,0,-0.014221,-0.045039,0.084317
1552637068.169887,0,0,-0.015102,-0.046417,0.085708
1552637068.187779,0,0,-0.017393,-0.044080,0.083869
1552637068.210462,0,0,-0.017393,-0.047819,0.086131
1552637068.260431,0,0,-0.014297,-0.051410,0.085137
1552637068.278540,0,0,-0.016612,-0.045974,0.087125
1552637068.296649,0,0,-0.014926,-0.050525,0.084441
1552637068.314634,0,0,-0.015832,-0.045187,0.084963
1552637068.332562,0,0,-0.016084,-0.047130,0.086081
1552637068.350445,0,0,-0.015455,-0.047868,0.085385
1552637068.368345,0,0,-0.016688,-0.045826,0.085534
1552637068.397625,0,0,-0.016663,-0.045384,0.085758
1552637068.440291,0,0,-0.016184,-0.046884,0.086156
1552637068.458268,0,0,-0.015429,-0.046392,0.086578
1552637068.476211,0,0,-0.016386,-0.048631,0.083546
1552637068.494147,0,0,-0.015933,-0.047450,0.084366
1552637068.512197,0,0,-0.016386,-0.050180,0.084292
1552637068.530091,0,0,-0.016386,-0.047671,0.085509
1552637068.552615,0,0,-0.014976,-0.050426,0.083795
1552637068.588718,0,0,-0.015304,-0.046048,0.085186
1552637068.624840,0,0,-0.016638,-0.047598,0.083795
1552637068.642934,0,0,-0.016914,-0.045015,0.087224
1552637068.660659,0,0,-0.016109,-0.049762,0.085808
1552637068.678579,0,0,-0.017317,-0.043957,0.085634
1552637068.696496,0,0,-0.016663,-0.047794,0.084789
1552637068.714468,0,0,-0.017720,-0.045876,0.083720
1552637068.734192,0,0,-0.016814,-0.046983,0.086454
1552637068.771016,0,0,-0.016612,-0.047278,0.085708
1552637068.806965,0,0,-0.015958,-0.048950,0.085857
1552637068.825094,0,0,-0.015908,-0.046712,0.086106
1552637068.843001,0,0,-0.016285,-0.050353,0.088193
1552637068.860921,0,0,-0.011855,-0.047179,0.089709
1552637068.878662,0,0,-0.011855,-0.044178,0.087870
1552637068.896585,0,0,-0.018072,-0.049541,0.081608
1552637068.919393,0,0,-0.013491,-0.051533,0.087174
1552637068.956637,0,0,-0.015203,-0.046441,0.076563
1552637068.975018,0,0,-0.015304,-0.058568,0.088069
1552637068.993159,0,0,-0.014624,-0.052001,0.087572
1552637069.011386,0,0,-0.020967,-0.038275,0.080887
1552637069.030134,0,0,-0.016235,-0.062922,0.090057
1552637069.048368,0,0,-0.018550,-0.039505,0.082329
1552637069.066370,0,0,-0.017317,-0.059429,0.086876
1552637069.087768,0,0,-0.015706,-0.037020,0.087348
1552637069.130052,0,0,-0.014725,-0.060708,0.085087
1552637069.148207,0,0,-0.013240,-0.036455,0.088541
1552637069.166304,0,0,-0.020942,-0.031855,0.081807
1552637069.184417,0,0,-0.012610,-0.057117,0.088665
1552637069.202353,0,0,-0.017972,-0.037242,0.083099
1552637069.220328,0,0,-0.011050,-0.049147,0.086628
1552637069.238248,0,0,-0.016210,-0.041448,0.090107
1552637069.267467,0,0,-0.020740,-0.042973,0.083472
1552637069.302668,0,0,-0.015908,-0.058642,0.086429
1552637069.320832,0,0,-0.014272,-0.038004,0.086951
1552637069.338727,0,0,-0.019532,-0.043785,0.082378
1552637069.356704,0,0,-0.014297,-0.057019,0.088392
1552637069.374744,0,0,-0.016738,-0.041276,0.083497
1552637069.392654,0,0,-0.016965,-0.044720,0.087150
1552637069.415336,0,0,-0.015580,-0.055715,0.087100
1552637069.451055,0,0,-0.015329,-0.055272,0.082478
1552637069.487014,0,0,-0.015706,-0.040833,0.081682
1552637069.504861,0,0,-0.015152,-0.051361,0.086851
1552637069.522899,0,0,-0.014699,-0.050746,0.086802
1552637069.540817,0,0,-0.017896,-0.038914,0.081658
1552637069.558734,0,0,-0.015278,-0.060192,0.087671
1552637069.576641,0,0,-0.017468,-0.039308,0.083124
1552637069.599267,0,0,-0.018676,-0.049024,0.080266
1552637069.636592,0,0,-0.014725,-0.054633,0.086677
1552637069.654918,0,0,-0.015958,-0.042506,0.084068
1552637069.673039,0,0,-0.012635,-0.061741,0.087274
1552637069.690957,0,0,-0.014674,-0.038595,0.082726
1552637069.708750,0,0,-0.017946,-0.054067,0.079297
1552637069.726672,0,0,-0.015127,-0.043563,0.087050
1552637069.744590,0,0,-0.019910,-0.041227,0.084043
1552637069.767363,0,0,-0.014095,-0.064595,0.084441
1552637069.820448,0,0,-0.021546,-0.055641,0.088367
1552637069.856136,0,0,-0.018374,-0.040120,0.078626
1552637069.874467,0,0,-0.017896,-0.058027,0.086951
1552637069.892488,0,0,-0.017921,-0.039333,0.085783
1552637069.910420,0,0,-0.021017,-0.040292,0.081459
1552637069.928316,0,0,-0.018978,-0.054214,0.087000
1552637069.946235,0,0,-0.018903,-0.042456,0.081384
1552637069.976240,0,0,-0.018878,-0.040981,0.079968
1552637070.020518,0,0,-0.018173,-0.054583,0.087348
1552637070.039630,0,0,-0.017468,-0.042825,0.087895
1552637070.057807,0,0,-0.016587,-0.043096,0.079893
1552637070.075936,0,0,-0.016814,-0.056551,0.087398
1552637070.093941,0,0,-0.015782,-0.044916,0.083372
1552637070.111992,0,0,-0.016184,-0.045826,0.084814
1552637070.130956,0,0,-0.015429,-0.053698,0.089659
1552637070.167043,0,0,-0.015757,-0.041005,0.088914
1552637070.185062,0,0,-0.015681,-0.041842,0.095176
1552637070.212349,0,0,-0.015757,-0.040636,0.088491
1552637070.230309,0,0,-0.016210,-0.038939,0.082676
1552637070.248247,0,0,-0.017065,-0.052074,0.089386
1552637070.266114,0,0,-0.016210,-0.039013,0.081012
1552637070.283958,0,0,-0.016713,-0.049664,0.086628
1552637070.312226,0,0,-0.017191,-0.049565,0.086901
1552637070.359931,0,0,-0.019280,-0.039849,0.087945
1552637070.378037,0,0,-0.020740,-0.039824,0.082279
1552637070.395962,0,0,-0.019054,-0.059503,0.086653
1552637070.413875,0,0,-0.019306,-0.040464,0.080763
1552637070.431927,0,0,-0.019683,-0.047671,0.085733
1552637070.449844,0,0,-0.018802,-0.051976,0.087323
1552637070.472478,0,0,-0.018349,-0.041005,0.082627
1552637070.520584,0,0,-0.020539,-0.053673,0.086628
1552637070.556340,0,0,-0.018928,-0.042825,0.084217
1552637070.574629,0,0,-0.018072,-0.056650,0.088094
1552637070.592590,0,0,-0.016990,-0.039431,0.086379
1552637070.610466,0,0,-0.018500,-0.057757,0.083447
1552637070.628472,0,0,-0.017468,-0.039947,0.087796
1552637070.646385,0,0,-0.018853,-0.041079,0.079819
1552637070.668720,0,0,-0.017720,-0.055051,0.087125
1552637070.706313,0,0,-0.017342,-0.042112,0.079844
1552637070.724466,0,0,-0.017795,-0.050795,0.088417
1552637070.742523,0,0,-0.016059,-0.037955,0.085857
1552637070.760293,0,0,-0.017871,-0.041620,0.084242
1552637070.778249,0,0,-0.015706,-0.059134,0.090579
1552637070.796182,0,0,-0.014901,-0.037611,0.079844
1552637070.814095,0,0,-0.022603,-0.058618,0.087970
1552637070.833745,0,0,-0.015706,-0.037832,0.094480
1552637070.890235,0,0,-0.016763,-0.039062,0.083919
1552637070.908381,0,0,-0.016688,-0.045507,0.086006
1552637070.926513,0,0,-0.015455,-0.055125,0.087100
1552637070.944459,0,0,-0.013869,-0.038890,0.080763
1552637070.962394,0,0,-0.018274,-0.061348,0.087820
1552637070.980315,0,0,-0.014397,-0.036996,0.080987
1552637070.998269,0,0,-0.020589,-0.051533,0.081956
1552637071.021758,0,0,-0.014976,-0.059872,0.089162
1552637071.070768,0,0,-0.014800,-0.037660,0.087423
1552637071.088960,0,0,-0.018651,-0.039628,0.082503
1552637071.107094,0,0,-0.014196,-0.061864,0.087522
1552637071.125100,0,0,-0.018576,-0.037684,0.080067
1552637071.143033,0,0,-0.014171,-0.052074,0.088814
1552637071.160977,0,0,-0.014347,-0.043982,0.083571
1552637071.178764,0,0,-0.016638,-0.041694,0.085311
1552637071.201125,0,0,-0.013844,-0.060561,0.094033
1552637071.238683,0,0,-0.013139,-0.040439,0.083422
1552637071.256976,0,0,-0.015882,-0.060438,0.088864
1552637071.275072,0,0,-0.013818,-0.038004,0.085609
1552637071.292996,0,0,-0.017972,-0.052812,0.077011
1552637071.310903,0,0,-0.014397,-0.044892,0.088317
1552637071.328863,0,0,-0.016059,-0.042604,0.080664
1552637071.346778,0,0,-0.014624,-0.058839,0.090181
1552637071.369110,0,0,-0.013919,-0.050131,0.085385
1552637071.406597,0,0,-0.015001,-0.040489,0.089461
1552637071.425139,0,0,-0.013265,-0.037389,0.086031
1552637071.443384,0,0,-0.017166,-0.041989,0.083596
1552637071.461356,0,0,-0.013592,-0.061372,0.086106
1552637071.479294,0,0,-0.016738,-0.037955,0.079943
1552637071.497177,0,0,-0.014297,-0.050353,0.089982
1552637071.515077,0,0,-0.013290,-0.049762,0.083298
1552637071.537422,0,0,-0.014775,-0.040612,0.085534
1552637071.590547,0,0,-0.014574,-0.039382,0.083223
1552637071.626147,0,0,-0.015228,-0.055813,0.079844
1552637071.644608,0,0,-0.015681,-0.049442,0.089386
1552637071.662550,0,0,-0.014800,-0.050869,0.083422
1552637071.683099,0,0,-0.014901,-0.042899,0.078775
1552637071.701408,0,0,-0.016411,-0.056108,0.087497
1552637071.719140,0,0,-0.015203,-0.052788,0.086156
1552637071.738701,0,0,-0.016738,-0.038865,0.082204
1552637071.790277,0,0,-0.014725,-0.050008,0.089759
1552637071.808315,0,0,-0.014448,-0.050131,0.083024
1552637071.826395,0,0,-0.016914,-0.041694,0.085609
1552637071.844407,0,0,-0.015329,-0.057412,0.089162
1552637071.862361,0,0,-0.015001,-0.038496,0.079918
1552637071.880276,0,0,-0.018123,-0.051853,0.089610
1552637071.898309,0,0,-0.015127,-0.044375,0.086628
1552637071.920385,0,0,-0.016738,-0.043022,0.079943
1552637071.956510,0,0,-0.014850,-0.049319,0.083000
1552637071.974643,0,0,-0.017795,-0.042875,0.085236
1552637072.002357,0,0,-0.016260,-0.048385,0.081409
1552637072.020659,0,0,-0.015404,-0.050254,0.091598
1552637072.039346,0,0,-0.015656,-0.043982,0.080018
1552637072.057480,0,0,-0.015731,-0.050279,0.087522
1552637072.075472,0,0,-0.015278,-0.053009,0.086305
1552637072.121552,0,0,-0.014876,-0.048975,0.085857
1552637072.157308,0,0,-0.015706,-0.041473,0.082254
1552637072.175913,0,0,-0.017166,-0.057068,0.087199
1552637072.193879,0,0,-0.016612,-0.039726,0.087522
1552637072.211798,0,0,-0.017594,-0.049196,0.082304
1552637072.229578,0,0,-0.015706,-0.049787,0.087622
1552637072.247558,0,0,-0.015606,-0.041842,0.082179
1552637072.269900,0,0,-0.016512,-0.045334,0.088218
1552637072.307463,0,0,-0.014800,-0.040439,0.084118
1552637072.325562,0,0,-0.016436,-0.039997,0.086628
1552637072.343695,0,0,-0.015832,-0.051361,0.087970
1552637072.361671,0,0,-0.017720,-0.041153,0.082627
1552637072.379589,0,0,-0.016411,-0.055715,0.088144
1552637072.397494,0,0,-0.015656,-0.041054,0.081782
1552637072.415397,0,0,-0.014876,-0.048581,0.086354
1552637072.435249,0,0,-0.015606,-0.050476,0.086926
1552637072.471950,0,0,-0.015027,-0.057757,0.086131
1552637072.507683,0,0,-0.015278,-0.039923,0.082080
1552637072.525980,0,0,-0.015933,-0.051558,0.087199
1552637072.543918,0,0,-0.014850,-0.040907,0.081484
1552637072.561839,0,0,-0.015354,-0.049442,0.086280
1552637072.579825,0,0,-0.014876,-0.049221,0.088144
1552637072.597756,0,0,-0.015329,-0.043391,0.083745
1552637072.620066,0,0,-0.015606,-0.054387,0.088889
1552637072.657770,0,0,-0.015606,-0.039554,0.081881
1552637072.675867,0,0,-0.015228,-0.052763,0.087895
1552637072.693917,0,0,-0.015530,-0.044301,0.082353
1552637072.711849,0,0,-0.014523,-0.048262,0.080465
1552637072.729855,0,0,-0.014574,-0.051238,0.087274
1552637072.747817,0,0,-0.014976,-0.043145,0.083198
1552637072.765744,0,0,-0.015253,-0.053132,0.085460
1552637072.795081,0,0,-0.014699,-0.056527,0.089311
1552637072.840192,0,0,-0.014070,-0.045531,0.083248
1552637072.858191,0,0,-0.014020,-0.046171,0.086752
1552637072.876133,0,0,-0.014473,-0.052124,0.087870
1552637072.894078,0,0,-0.014045,-0.041325,0.088491
1552637072.912084,0,0,-0.016134,-0.053722,0.082875
1552637072.929988,0,0,-0.015228,-0.042653,0.089833
1552637072.952677,0,0,-0.015807,-0.041128,0.080191
1552637072.989780,0,0,-0.016537,-0.045753,0.088641
1552637073.008658,0,0,-0.015077,-0.044793,0.080589
1552637073.027495,0,0,-0.015958,-0.048557,0.087920
1552637073.045882,0,0,-0.015580,-0.051189,0.085708
1552637073.064730,0,0,-0.016436,-0.042875,0.084242
1552637073.082819,0,0,-0.016386,-0.058568,0.089535
1552637073.100791,0,0,-0.015152,-0.039997,0.081012
1552637073.129458,0,0,-0.016487,-0.040784,0.082875
1552637073.169953,0,0,-0.014322,-0.058913,0.087423
1552637073.188076,0,0,-0.011880,-0.039234,0.087920
1552637073.206033,0,0,-0.016084,-0.052419,0.082726
1552637073.223966,0,0,-0.013969,-0.042038,0.088715
1552637073.242053,0,0,-0.015807,-0.042456,0.083521
1552637073.260042,0,0,-0.013667,-0.045802,0.087199
1552637073.279981,0,0,-0.013089,-0.052025,0.087671
1552637073.330807,0,0,-0.014976,-0.042063,0.083969
1552637073.366549,0,0,-0.014070,-0.044523,0.086056
1552637073.384873,0,0,-0.013416,-0.044400,0.084118
1552637073.402839,0,0,-0.013768,-0.048114,0.085137
1552637073.420762,0,0,-0.013114,-0.050943,0.086976
1552637073.438680,0,0,-0.013542,-0.044621,0.085112
1552637073.456638,0,0,-0.013416,-0.048950,0.086006
1552637073.479046,0,0,-0.013818,-0.049959,0.085037
1552637073.515234,0,0,-0.013793,-0.050082,0.085907
1552637073.550914,0,0,-0.006821,-0.050894,0.085634
1552637073.569294,0,0,-0.013416,-0.045384,0.085012
1552637073.587276,0,0,-0.012308,-0.050623,0.085311
1552637073.605171,0,0,-0.012258,-0.048335,0.085112
1552637073.623101,0,0,-0.011603,-0.046884,0.084366
1552637073.641010,0,0,-0.010974,-0.050279,0.084267
1552637073.663321,0,0,-0.011201,-0.054313,0.085609
1552637073.700695,0,0,-0.010571,-0.046687,0.085037
1552637073.718801,0,0,-0.009691,-0.051878,0.085982
1552637073.736882,0,0,-0.009640,-0.053378,0.086503
1552637073.754902,0,0,-0.009942,-0.046343,0.085957
1552637073.772824,0,0,-0.009313,-0.047843,0.085907
1552637073.790727,0,0,-0.010118,-0.050844,0.087299
1552637073.808642,0,0,-0.018500,-0.045310,0.083820
1552637073.834850,0,0,-0.015958,-0.047007,0.083521
1552637073.880280,0,0,-0.017770,-0.049787,0.083820
1552637073.898406,0,0,-0.018475,-0.049467,0.084565
1552637073.916194,0,0,-0.018274,-0.046220,0.083546
1552637073.934120,0,0,-0.017644,-0.048114,0.083347
1552637073.952106,0,0,-0.016638,-0.049418,0.086329
1552637073.970060,0,0,-0.016059,-0.045015,0.084491
1552637073.992213,0,0,-0.016260,-0.044670,0.085708
1552637074.030658,0,0,-0.015832,-0.048852,0.093437
1552637074.066888,0,0,-0.018827,-0.055863,0.089659
1552637074.085062,0,0,-0.011226,-0.065333,0.085659
1552637074.102986,0,0,-0.019079,-0.037586,0.085982
1552637074.120759,0,0,-0.021042,-0.051951,0.083497
1552637074.138713,0,0,-0.014548,-0.049418,0.081459
1552637074.156633,0,0,-0.013189,-0.039578,0.078154
1552637074.176532,0,0,-0.016134,-0.053009,0.081484
1552637074.216841,0,0,-0.018978,-0.044793,0.084789
1552637074.235197,0,0,-0.013290,-0.047278,0.081807
1552637074.253292,0,0,-0.014976,-0.051361,0.085957
1552637074.271213,0,0,-0.014322,-0.046023,0.086976
1552637074.289137,0,0,-0.018525,-0.048704,0.081061
1552637074.307064,0,0,-0.016965,-0.049885,0.088914
1552637074.324939,0,0,-0.017317,-0.055567,0.082030
1552637074.347729,0,0,-0.019431,-0.046466,0.084068
1552637074.400161,0,0,-0.016638,-0.044793,0.080813
1552637074.418260,0,0,-0.018425,-0.049393,0.086454
1552637074.436378,0,0,-0.015757,-0.050721,0.086230
1552637074.454290,0,0,-0.017116,-0.041620,0.082875
1552637074.472276,0,0,-0.015983,-0.043760,0.088939
1552637074.490175,0,0,-0.012308,-0.047302,0.086653
1552637074.508067,0,0,-0.013718,-0.048040,0.083844
1552637074.534295,0,0,-0.012711,-0.050057,0.084242
1552637074.580310,0,0,-0.008054,-0.047794,0.086156
1552637074.598477,0,0,-0.014070,-0.047007,0.088168
1552637074.616405,0,0,-0.011603,-0.051017,0.084739
1552637074.634352,0,0,-0.008457,-0.039160,0.090653
1552637074.652306,0,0,-0.008130,-0.048704,0.086727
1552637074.670241,0,0,-0.010521,-0.044621,0.085286
1552637074.691421,0,0,-0.007299,-0.049836,0.087423
1552637074.726975,0,0,-0.008004,-0.049270,0.088044
1552637074.744754,0,0,-0.006771,-0.046958,0.084491
1552637074.772343,0,0,-0.006670,-0.048803,0.085907
1552637074.790289,0,0,-0.005814,-0.044129,0.086851
1552637074.808361,0,0,-0.004027,-0.048286,0.088467
1552637074.826262,0,0,-0.006041,-0.045605,0.086404
1552637074.844187,0,0,-0.007123,-0.046146,0.086677
1552637074.890842,0,0,-0.004682,-0.040636,0.088665
1552637074.926580,0,0,-0.001963,-0.043637,0.090107
1552637074.944686,0,0,0.000074,-0.043563,0.090728
1552637074.962395,0,0,0.001286,-0.041276,0.090057
1552637074.980396,0,0,0.003214,-0.042875,0.094232
1552637074.998308,0,0,0.003338,-0.042038,0.090281
1552637075.016663,0,0,0.002101,-0.039824,0.091299
1552637075.048752,0,0,0.004252,-0.042063,0.092144
1552637075.082443,0,0,0.000223,-0.043391,0.092840
1552637075.100627,0,0,0.000890,-0.044572,0.088193
1552637075.118561,0,0,-0.000025,-0.041473,0.085559
1552637075.136472,0,0,-0.004656,-0.044966,0.093710
1552637075.154372,0,0,-0.007375,-0.048926,0.092617
1552637075.172345,0,0,-0.011050,-0.042358,0.089038
1552637075.192253,0,0,-0.015102,-0.039087,0.092691
1552637075.232200,0,0,-0.008180,-0.043563,0.084515
1552637075.250254,0,0,-0.008935,-0.038250,0.084888
1552637075.268325,0,0,-0.012887,-0.043637,0.090281
1552637075.286362,0,0,-0.013139,-0.040120,0.091150
1552637075.304305,0,0,-0.012031,-0.039087,0.084888
1552637075.322209,0,0,-0.011931,-0.034511,0.088342
1552637075.340122,0,0,-0.010194,-0.040292,0.091349
1552637075.365719,0,0,-0.008684,-0.044449,0.084143
1552637075.401806,0,0,-0.017871,-0.038742,0.091796
1552637075.420029,0,0,-0.013466,-0.046097,0.083994
1552637075.437997,0,0,-0.010823,-0.039160,0.085037
1552637075.455941,0,0,-0.015429,-0.041251,0.086951
1552637075.473868,0,0,-0.011880,-0.051312,0.091523
1552637075.491828,0,0,-0.013869,-0.038767,0.087299
1552637075.511596,0,0,-0.018223,-0.039824,0.091349
1552637075.548115,0,0,-0.012786,-0.039997,0.082527
1552637075.584107,0,0,-0.017644,-0.036602,0.095350
1552637075.602191,0,0,-0.011478,-0.035348,0.085907
1552637075.620141,0,0,-0.023232,-0.042604,0.099102
1552637075.638066,0,0,-0.008935,-0.047745,0.096046
1552637075.655988,0,0,-0.013768,-0.035348,0.076464
1552637075.673862,0,0,-0.020816,-0.049984,0.091747
1552637075.723364,0,0,-0.017443,-0.048803,0.094282
1552637075.759041,0,0,-0.005286,-0.038324,0.100022
1552637075.777135,0,0,0.000247,-0.058593,0.100842
1552637075.795118,0,0,-0.008281,-0.032248,0.081931
1552637075.812979,0,0,-0.014020,-0.046171,0.094356
1552637075.830924,0,0,-0.005210,-0.034806,0.091399
1552637075.848838,0,0,-0.019532,-0.033429,0.087000
1552637075.881151,0,0,-0.020715,-0.042137,0.089038
1552637075.920202,0,0,-0.007727,-0.045236,0.095077
1552637075.938078,0,0,-0.011427,-0.034044,0.083124
1552637075.955910,0,0,-0.023131,-0.034954,0.095474
1552637075.974046,0,0,-0.009263,-0.047770,0.089933
1552637075.991970,0,0,-0.010295,-0.028632,0.086653
1552637076.010002,0,0,-0.019356,-0.043908,0.083596
1552637076.034367,0,0,-0.006293,-0.034093,0.095698
1552637076.072269,0,0,-0.016487,-0.034757,0.085634
1552637076.090833,0,0,-0.015152,-0.045900,0.094033
1552637076.108642,0,0,-0.006670,-0.052665,0.087970
1552637076.126468,0,0,-0.018626,-0.032101,0.087647
1552637076.144641,0,0,-0.007123,-0.046294,0.096493
1552637076.162468,0,0,-0.012182,-0.045654,0.083447
1552637076.180245,0,0,-0.017569,-0.033232,0.090703
1552637076.200196,0,0,-0.012283,-0.047720,0.091896
1552637076.235774,0,0,-0.004229,-0.032765,0.083273
1552637076.253950,0,0,-0.000453,-0.057929,0.091796
1552637076.282246,0,0,-0.003046,-0.038816,0.092815
1552637076.300016,0,0,-0.008029,-0.047893,0.089461
1552637076.317855,0,0,-0.013089,-0.039062,0.088814
1552637076.335656,0,0,-0.006897,-0.042924,0.092095
1552637076.353267,0,0,-0.007501,-0.043268,0.088218
1552637076.375605,0,0,-0.008558,-0.039111,0.090678
1552637076.430316,0,0,-0.008709,-0.039234,0.089535
1552637076.465956,0,0,-0.006871,-0.042432,0.090728
1552637076.484330,0,0,-0.011553,-0.040931,0.090479
1552637076.502217,0,0,-0.006116,-0.044990,0.085385
1552637076.520016,0,0,-0.007903,-0.044326,0.090355
1552637076.538141,0,0,-0.005638,-0.046589,0.086255
1552637076.555947,0,0,-0.005462,-0.043539,0.087994
1552637076.585803,0,0,-0.007098,-0.047524,0.086528
1552637076.621262,0,0,-0.007098,-0.048901,0.090206
1552637076.639530,0,0,-0.000654,-0.042801,0.082875
1552637076.657375,0,0,-0.012535,-0.049098,0.091001
1552637076.675183,0,0,-0.004254,-0.049541,0.088168
1552637076.693934,0,0,-0.004908,-0.043416,0.087174
1552637076.712053,0,0,-0.005965,-0.050057,0.085783
1552637076.733467,0,0,-0.005940,-0.047081,0.087075
1552637076.770943,0,0,-0.005336,-0.047401,0.086503
1552637076.788933,0,0,-0.003222,-0.049049,0.084863
1552637076.807015,0,0,-0.006544,-0.044474,0.088342
1552637076.824857,0,0,-0.005991,-0.048016,0.091001
1552637076.842669,0,0,-0.003725,-0.048827,0.083770
1552637076.860417,0,0,-0.006947,-0.039874,0.092045
1552637076.878257,0,0,-0.005135,-0.046614,0.087050
1552637076.900525,0,0,-0.005537,-0.047598,0.085758
1552637076.936504,0,0,-0.006217,-0.043563,0.087075
1552637076.954508,0,0,-0.007299,-0.054018,0.086603
1552637076.982183,0,0,-0.004229,-0.053772,0.085236
1552637077.000082,0,0,-0.007601,-0.051213,0.085311
1552637077.018299,0,0,-0.002668,-0.045039,0.091921
1552637077.036752,0,0,-0.005437,-0.048557,0.084267
1552637077.054700,0,0,-0.012434,-0.050795,0.090305
1552637077.076427,0,0,-0.006897,-0.042727,0.089436
1552637077.130446,0,0,-0.003750,-0.053993,0.085037
1552637077.166030,0,0,-0.004933,-0.046614,0.082155
1552637077.184261,0,0,-0.005386,-0.047475,0.084168
1552637077.202205,0,0,-0.009967,-0.047302,0.084590
1552637077.220025,0,0,-0.012661,-0.045384,0.087125
1552637077.237856,0,0,-0.004556,-0.050795,0.087299
1552637077.255674,0,0,-0.009816,-0.042752,0.083049
1552637077.278111,0,0,-0.005940,-0.048975,0.083248
1552637077.314087,0,0,-0.006041,-0.050131,0.086354
1552637077.349519,0,0,-0.012736,-0.054805,0.089262
1552637077.367737,0,0,-0.000403,-0.043047,0.088019
1552637077.385575,0,0,-0.006343,-0.048262,0.085559
1552637077.403438,0,0,-0.004153,-0.051140,0.086528
1552637077.421261,0,0,-0.008357,-0.044695,0.085932
1552637077.439078,0,0,-0.005991,-0.049147,0.093312
1552637077.461245,0,0,-0.006142,-0.053083,0.081732
1552637077.498703,0,0,-0.006469,-0.045630,0.087423
1552637077.516584,0,0,-0.007803,-0.054928,0.084515
1552637077.534368,0,0,-0.008004,-0.049811,0.082478
1552637077.552220,0,0,-0.008306,-0.048458,0.086603
1552637077.570377,0,0,-0.005638,-0.056084,0.082329
1552637077.588339,0,0,-0.006695,-0.054510,0.084764
1552637077.606102,0,0,-0.008180,-0.049664,0.084317
1552637077.632694,0,0,-0.007148,-0.044990,0.086305
1552637077.680029,0,0,-0.008357,-0.053132,0.080813
1552637077.698040,0,0,-0.007903,-0.054337,0.088814
1552637077.715944,0,0,-0.006846,-0.052517,0.079098
1552637077.733778,0,0,-0.009086,-0.055543,0.081558
1552637077.751594,0,0,-0.004178,-0.058667,0.079993
1552637077.769380,0,0,-0.008004,-0.048508,0.084963
1552637077.788954,0,0,-0.005663,-0.057609,0.080415
1552637077.829136,0,0,-0.004304,-0.051140,0.076762
1552637077.847372,0,0,-0.007929,-0.056773,0.083820
1552637077.865389,0,0,-0.007627,-0.051533,0.078750
1552637077.883218,0,0,-0.009993,-0.052566,0.076812
1552637077.901076,0,0,-0.006947,-0.062258,0.082826
1552637077.918992,0,0,-0.008331,-0.057191,0.079024
1552637077.936822,0,0,-0.007929,-0.058322,0.079446
1552637077.959542,0,0,-0.007979,-0.056994,0.081856
1552637077.996736,0,0,-0.008759,-0.051804,0.079670
1552637078.015606,0,0,-0.009867,-0.060708,0.082254
1552637078.034144,0,0,-0.009112,-0.053329,0.086305
1552637078.052084,0,0,-0.009942,-0.053919,0.084565
1552637078.069979,0,0,-0.008357,-0.058667,0.082478
1552637078.087826,0,0,-0.009338,-0.049984,0.085012
1552637078.105411,0,0,-0.009942,-0.052591,0.086131
1552637078.125470,0,0,-0.009388,-0.056133,0.077706
1552637078.144185,0,0,-0.010999,-0.053108,0.084168
1552637078.190068,0,0,-0.012535,-0.051238,0.086677
1552637078.208079,0,0,-0.009665,-0.056453,0.079844
1552637078.225972,0,0,-0.009162,-0.053993,0.082055
1552637078.243823,0,0,-0.010773,-0.054141,0.078477
1552637078.261637,0,0,-0.008961,-0.054780,0.084913
1552637078.279434,0,0,-0.009414,-0.051238,0.077334
1552637078.302219,0,0,-0.010345,-0.056945,0.079893
1552637078.339235,0,0,-0.008986,-0.051755,0.080962
1552637078.357324,0,0,-0.009464,-0.055641,0.080390
1552637078.375381,0,0,-0.009791,-0.054706,0.076862
1552637078.393200,0,0,-0.010144,-0.054313,0.081583
1552637078.411017,0,0,-0.008457,-0.051017,0.082254
1552637078.428889,0,0,-0.010219,-0.053476,0.077110
1552637078.446684,0,0,-0.009414,-0.056428,0.079670
1552637078.466410,0,0,-0.008935,-0.052935,0.081459
1552637078.506535,0,0,-0.008256,-0.053181,0.081235
1552637078.524825,0,0,-0.010571,-0.053772,0.081335
1552637078.542784,0,0,-0.010697,-0.054633,0.083422
1552637078.560602,0,0,-0.010974,-0.054436,0.079694
1552637078.578490,0,0,-0.010974,-0.054682,0.079794
1552637078.596281,0,0,-0.010219,-0.057363,0.084391
1552637078.614059,0,0,-0.010949,-0.054362,0.085112
1552637078.633707,0,0,-0.010446,-0.055666,0.078949
1552637078.690269,0,0,-0.008759,-0.054239,0.085808
1552637078.725848,0,0,-0.009388,-0.054091,0.083323
1552637078.744034,0,0,-0.009741,-0.051164,0.084217
1552637078.761952,0,0,-0.009565,-0.053108,0.083049
1552637078.779768,0,0,-0.009942,-0.051041,0.079744
