time,GPS_lat,GPS_long,accelx,accely,accelz
1552636576.369658,0,0,0.004549,0.006536,0.099376
1552636576.387850,0,0,0.004524,0.006487,0.099550
1552636576.406069,0,0,0.004401,0.006487,0.099624
1552636576.423546,0,0,0.004623,0.006462,0.099599
1552636576.948967,0,0,0.004524,0.006412,0.099898
1552636576.993307,0,0,0.004648,0.006412,0.099972
1552636577.029912,0,0,0.004500,0.006313,0.100072
1552636577.048402,0,0,0.004673,0.006388,0.099997
1552636577.066561,0,0,0.004648,0.006412,0.099997
1552636577.086351,0,0,0.004598,0.006388,0.100221
1552636577.104561,0,0,0.004598,0.006338,0.100096
1552636577.122816,0,0,0.004450,0.006462,0.100171
1552636577.146142,0,0,0.004549,0.006511,0.099947
1552636577.194223,0,0,0.004549,0.006338,0.100320
1552636577.230172,0,0,0.004450,0.006610,0.100246
1552636577.248507,0,0,0.004524,0.006462,0.100345
1552636577.266901,0,0,0.004549,0.006412,0.100146
1552636577.285840,0,0,0.004673,0.006511,0.100072
1552636577.303995,0,0,0.004549,0.006338,0.100196
1552636577.322166,0,0,0.004598,0.006437,0.100221
1552636577.350213,0,0,0.004623,0.006536,0.100295
1552636577.376303,0,0,0.004648,0.006462,0.100221
1552636577.406806,0,0,0.004623,0.006388,0.100171
1552636577.425102,0,0,0.004475,0.006388,0.100320
1552636577.443192,0,0,0.004500,0.006462,0.100171
1552636577.462163,0,0,0.004425,0.006462,0.100295
1552636577.480463,0,0,0.004549,0.006437,0.100171
1552636577.547231,0,0,0.004598,0.006412,0.100370
1552636577.586515,0,0,0.004450,0.006437,0.100270
1552636577.608155,0,0,0.004648,0.006412,0.100246
1552636577.628527,0,0,0.004574,0.006462,0.100395
1552636577.648752,0,0,0.004623,0.006511,0.100544
1552636577.675421,0,0,0.004648,0.006437,0.100221
1552636577.703229,0,0,0.004623,0.006289,0.100221
1552636577.756240,0,0,0.004475,0.006388,0.100420
1552636577.777020,0,0,0.004623,0.012651,0.100494
1552636577.797601,0,0,0.004648,0.006487,0.100469
1552636577.818159,0,0,0.004524,0.006487,0.100370
1552636577.837826,0,0,0.004524,0.006462,0.100295
1552636577.857903,0,0,0.004598,0.006511,0.100295
1552636577.895530,0,0,0.004673,0.006412,0.100544
1552636577.931894,0,0,0.004673,0.006462,0.100270
1552636577.951277,0,0,0.004401,0.006338,0.100345
1552636577.969781,0,0,0.004598,0.006338,0.100121
1552636577.988430,0,0,0.004574,0.006363,0.100494
1552636578.006458,0,0,0.004425,0.006412,0.100469
1552636578.024325,0,0,0.004549,0.006313,0.100519
1552636578.087468,0,0,0.004673,0.006487,0.100569
1552636578.126403,0,0,0.004549,0.006511,0.100345
1552636578.164295,0,0,0.004598,0.006437,0.100618
1552636578.183527,0,0,0.004747,0.006388,0.100395
1552636578.203440,0,0,0.004771,0.006437,0.100494
1552636578.233343,0,0,0.004425,0.006437,0.100320
1552636578.252755,0,0,0.004450,0.012627,0.100246
1552636578.325433,0,0,0.004623,0.006586,0.100544
1552636578.367902,0,0,0.004673,0.006487,0.100544
1552636578.386463,0,0,0.004425,0.006709,0.100643
1552636578.416194,0,0,0.004475,0.006412,0.100743
1552636578.450444,0,0,0.004648,0.006289,0.100593
1552636578.487912,0,0,0.004771,0.006437,0.100618
1552636578.530355,0,0,0.004549,0.006264,0.100618
1552636578.548525,0,0,0.004549,0.006388,0.100494
1552636578.567904,0,0,0.004697,0.006313,0.100544
1552636578.589598,0,0,0.004574,0.006536,0.100544
1552636578.622783,0,0,0.004524,0.006511,0.100444
1552636578.677648,0,0,0.004722,0.006388,0.100618
1552636578.717707,0,0,0.004623,0.006437,0.100519
1552636578.753196,0,0,0.004549,0.006363,0.100743
1552636578.776192,0,0,0.004425,0.006437,0.100569
1552636578.796278,0,0,0.004524,0.006412,0.100618
1552636578.827816,0,0,0.004747,0.006610,0.100569
1552636578.848358,0,0,0.004623,0.006462,0.100569
1552636578.899897,0,0,0.004648,0.006437,0.100643
1552636578.918849,0,0,0.004500,0.006511,0.100668
1552636578.953846,0,0,0.004524,0.006511,0.100693
1552636578.976085,0,0,0.004524,0.006487,0.100469
1552636578.998058,0,0,0.004475,0.006338,0.100569
1552636579.050517,0,0,0.004771,0.006437,0.100643
1552636579.089836,0,0,0.004326,0.006412,0.100668
1552636579.124989,0,0,0.004351,0.006412,0.100593
1552636579.160779,0,0,0.004623,0.006388,0.100420
1552636579.192228,0,0,0.004500,0.006437,0.100668
1552636579.244727,0,0,0.004623,0.006289,0.100569
1552636579.281769,0,0,0.004524,0.006264,0.100494
1552636579.308847,0,0,0.004549,0.000149,0.100693
1552636579.330733,0,0,0.004598,0.006313,0.100867
1552636579.351227,0,0,0.004500,0.006561,0.100593
1552636579.388703,0,0,0.004574,0.006561,0.100941
1552636579.440351,0,0,0.004450,0.006412,0.100693
1552636579.489784,0,0,0.004475,0.006412,0.100345
1552636579.528374,0,0,0.004401,0.006388,0.100544
1552636579.548837,0,0,0.004500,0.006363,0.100618
1552636579.579436,0,0,0.004673,0.006214,0.100643
1552636579.598485,0,0,0.004598,0.006239,0.100618
1552636579.627543,0,0,0.004401,0.006388,0.100494
1552636579.672959,0,0,0.004450,0.006313,0.100792
1552636579.715841,0,0,0.004673,0.006561,0.100817
1552636579.738846,0,0,0.004376,0.006511,0.100892
1552636579.765172,0,0,0.004401,0.006412,0.100420
1552636579.786108,0,0,0.004450,0.006487,0.100544
1552636579.805145,0,0,0.004697,0.006412,0.100693
1552636579.823798,0,0,0.004549,0.006487,0.100569
1552636579.867409,0,0,0.004500,0.006437,0.100618
1552636579.886141,0,0,0.004623,0.006239,0.100867
1552636579.903454,0,0,0.004302,0.006388,0.100668
1552636579.922060,0,0,0.004500,0.006412,0.100668
1552636579.939334,0,0,0.004425,0.006437,0.100767
1552636579.956490,0,0,0.004450,0.006586,0.100767
1552636579.983552,0,0,0.004450,0.006412,0.100792
1552636580.015527,0,0,0.004450,0.006561,0.100618
1552636580.034221,0,0,0.004524,0.006289,0.100743
1552636580.051566,0,0,0.004524,0.012627,0.100743
1552636580.068869,0,0,0.004475,0.000173,0.100693
1552636580.087323,0,0,0.004598,0.012676,0.100718
1552636580.104551,0,0,0.004574,0.006511,0.100643
1552636580.122375,0,0,0.004326,0.006189,0.100593
1552636580.159160,0,0,0.004450,0.006338,0.100668
1552636580.194368,0,0,0.004326,0.006313,0.101016
1552636580.215452,0,0,0.004673,0.006487,0.100792
1552636580.234381,0,0,0.004598,0.006586,0.100743
1552636580.272810,0,0,0.004574,0.006462,0.100966
1552636580.292588,0,0,0.004598,0.006388,0.100867
1552636580.335995,0,0,0.004697,0.006536,0.100668
1552636580.372622,0,0,0.004574,0.006189,0.100892
1552636580.400989,0,0,0.004524,0.006388,0.100792
1552636580.419367,0,0,0.004549,0.006462,0.100817
1552636580.438187,0,0,0.004574,0.006635,0.100618
1552636580.458082,0,0,0.004673,0.006635,0.100718
1552636580.476525,0,0,0.004648,0.006586,0.100892
1552636580.520732,0,0,0.004425,0.006412,0.100917
1552636580.576430,0,0,0.004500,0.006437,0.100792
1552636580.613333,0,0,0.004500,0.006264,0.100469
1552636580.633707,0,0,0.004376,0.006412,0.100469
1552636580.651501,0,0,0.004401,0.006561,0.100569
1552636580.669672,0,0,0.004500,0.006412,0.100991
1552636580.689386,0,0,0.004598,0.006388,0.100991
1552636580.708225,0,0,0.004623,0.006462,0.100767
1552636580.728899,0,0,0.004549,0.006586,0.100867
1552636580.778873,0,0,0.004450,0.006338,0.100643
1552636580.797324,0,0,0.004425,0.006561,0.100817
1552636580.816355,0,0,0.004401,0.006363,0.100941
1552636580.835005,0,0,0.004574,0.006388,0.100941
1552636580.853256,0,0,0.004524,0.006388,0.100792
1552636580.872653,0,0,0.004623,0.006437,0.100519
1552636580.910650,0,0,0.004598,0.012676,0.100792
1552636580.952469,0,0,0.004524,0.006363,0.100817
1552636580.973855,0,0,0.004500,0.006363,0.100668
1552636580.992186,0,0,0.004697,0.006462,0.100569
1552636581.009884,0,0,0.004598,0.006412,0.100643
1552636581.027288,0,0,0.004673,0.006487,0.100817
1552636581.045175,0,0,0.004598,0.006487,0.100792
1552636581.063842,0,0,0.004623,0.006487,0.101215
1552636581.114303,0,0,0.004648,0.006338,0.100842
1552636581.132913,0,0,0.004351,0.006388,0.100767
1552636581.151124,0,0,0.004376,0.006462,0.100817
1552636581.169589,0,0,0.004623,0.006586,0.100817
1552636581.188027,0,0,0.004673,0.006412,0.100892
1552636581.206191,0,0,0.004623,0.006264,0.100743
1552636581.225476,0,0,0.004821,0.006338,0.100519
1552636581.258962,0,0,0.004549,0.006412,0.100544
1552636581.297640,0,0,0.004376,0.006363,0.100643
1552636581.333772,0,0,0.004549,0.006511,0.100892
1552636581.353084,0,0,0.004697,0.006536,0.100991
1552636581.372722,0,0,0.004648,0.006437,0.100718
1552636581.393187,0,0,0.004648,0.006437,0.100817
1552636581.411932,0,0,0.004524,0.006437,0.100718
1552636581.430740,0,0,0.004500,0.006586,0.100792
1552636581.469486,0,0,0.004401,0.006561,0.100767
1552636581.507782,0,0,0.004574,0.012651,0.101090
1552636581.526618,0,0,0.004500,0.006338,0.100792
1552636581.545126,0,0,0.004524,0.006388,0.100867
1552636581.563301,0,0,0.004475,0.006239,0.100718
1552636581.582236,0,0,0.004697,0.006462,0.100817
1552636581.601573,0,0,0.004450,0.006462,0.100892
1552636581.639635,0,0,0.004549,0.006189,0.100842
1552636581.676167,0,0,0.004623,0.006462,0.100693
1552636581.694620,0,0,0.004549,0.006363,0.100718
1552636581.712579,0,0,0.004500,0.006264,0.100892
1552636581.730617,0,0,0.004500,0.006412,0.100743
1552636581.748686,0,0,0.004549,0.006437,0.100743
1552636581.767948,0,0,0.004376,0.006561,0.100718
1552636581.788649,0,0,0.004376,0.006487,0.100494
1552636581.843105,0,0,0.004623,0.006462,0.100991
1552636581.883075,0,0,0.004697,0.012627,0.100718
1552636581.903005,0,0,0.004673,0.006338,0.100593
1552636581.922373,0,0,0.004648,0.006313,0.100519
1552636581.941887,0,0,0.004376,0.006090,0.100842
1552636581.962155,0,0,0.004425,0.006412,0.100693
1552636582.012294,0,0,0.004351,0.006561,0.100892
1552636582.048683,0,0,0.004846,0.006561,0.101264
1552636582.068707,0,0,0.004747,0.006734,0.101115
1552636582.087094,0,0,0.004326,0.012577,0.100569
1552636582.105501,0,0,0.004673,0.006784,0.100643
1552636582.125522,0,0,0.004722,0.006511,0.100693
1552636582.143834,0,0,0.004598,0.006437,0.100941
1552636582.186185,0,0,0.004500,0.012676,0.101066
1552636582.222758,0,0,0.004673,0.006412,0.100494
1552636582.243461,0,0,0.004228,0.006462,0.100420
1552636582.262703,0,0,0.004574,0.006982,0.100693
1552636582.281599,0,0,0.004178,0.006462,0.100817
1552636582.301833,0,0,0.004351,0.006883,0.101364
1552636582.322668,0,0,0.004302,0.006610,0.101066
1552636582.369649,0,0,0.004475,0.006264,0.100345
1552636582.407954,0,0,0.004574,0.006388,0.101090
1552636582.426903,0,0,0.004277,0.006338,0.101140
1552636582.444724,0,0,0.004425,0.006189,0.100966
1552636582.462656,0,0,0.004574,0.006388,0.100743
1552636582.482409,0,0,0.004697,0.006412,0.100892
1552636582.503441,0,0,0.004351,0.006561,0.100743
1552636582.553607,0,0,0.004351,0.006412,0.100544
1552636582.588706,0,0,0.004351,0.006412,0.100494
1552636582.606416,0,0,0.004277,0.006586,0.100569
1552636582.623763,0,0,0.004351,0.006759,0.100842
1552636582.641057,0,0,0.004574,0.000495,0.101240
1552636582.658363,0,0,0.004722,0.007873,0.099997
1552636582.675813,0,0,0.005118,0.010943,0.102631
1552636582.694633,0,0,0.005118,0.007774,0.100767
1552636582.730165,0,0,0.003832,0.005075,0.100892
1552636582.748268,0,0,0.004326,0.006660,0.100966
1552636582.766129,0,0,0.004376,0.005917,0.099947
1552636582.784014,0,0,0.004030,0.006363,0.100668
1552636582.803189,0,0,0.003733,0.006685,0.101314
1552636582.824310,0,0,0.004401,0.006536,0.100618
1552636582.855460,0,0,0.004648,0.006586,0.100569
1552636582.893707,0,0,0.004500,0.006239,0.100569
1552636582.911734,0,0,0.004401,0.006709,0.101115
1552636582.929456,0,0,0.004079,0.006536,0.101339
1552636582.947297,0,0,0.004500,0.006685,0.100618
1552636582.965179,0,0,0.004351,0.006511,0.100618
1552636582.983039,0,0,0.004326,0.006363,0.101016
1552636583.006017,0,0,0.004376,0.006462,0.100395
1552636583.046138,0,0,0.004228,0.006511,0.101090
1552636583.082289,0,0,0.004376,0.006685,0.100519
1552636583.105192,0,0,0.005142,0.006536,0.101314
1552636583.122999,0,0,0.004376,0.006487,0.100767
1552636583.141421,0,0,0.003832,0.006165,0.100444
1552636583.159392,0,0,0.004920,0.006289,0.101538
1552636583.178009,0,0,0.004104,0.006685,0.100196
1552636583.224841,0,0,0.004500,0.007254,0.100743
1552636583.260821,0,0,0.004920,0.012379,0.101264
1552636583.279577,0,0,0.003807,0.005843,0.100320
1552636583.297598,0,0,0.004722,0.006338,0.101438
1552636583.320955,0,0,0.003980,0.006685,0.101786
1552636583.341829,0,0,0.004945,0.006536,0.100096
1552636583.360067,0,0,0.004055,0.006858,0.101513
1552636583.378355,0,0,0.004697,0.006140,0.101563
1552636583.423746,0,0,0.004697,0.006610,0.101364
1552636583.441985,0,0,0.004376,0.005967,0.100370
1552636583.459886,0,0,0.004376,0.006437,0.100718
1552636583.477823,0,0,0.004277,0.006808,0.100991
1552636583.495830,0,0,0.004500,0.006759,0.100444
1552636583.513709,0,0,0.004104,0.006066,0.100966
1552636583.533329,0,0,0.004252,0.012577,0.100941
1552636583.574490,0,0,0.004549,0.006412,0.100892
1552636583.592927,0,0,0.004376,0.006561,0.101066
1552636583.611092,0,0,0.004153,0.006363,0.100618
1552636583.629050,0,0,0.004277,0.006437,0.100469
1552636583.647117,0,0,0.004376,0.006437,0.100966
1552636583.665094,0,0,0.004302,0.006462,0.100917
1552636583.682933,0,0,0.004203,0.006462,0.100817
1552636583.705986,0,0,0.004153,0.006536,0.100767
1552636583.744410,0,0,0.004302,0.006338,0.100718
1552636583.762909,0,0,0.004376,0.006487,0.100867
1552636583.780994,0,0,0.004326,0.006412,0.100842
1552636583.798865,0,0,0.004252,0.006536,0.100767
1552636583.816840,0,0,0.004351,0.006635,0.100966
1552636583.834706,0,0,0.004203,0.006709,0.100718
1552636583.852611,0,0,0.004425,0.006363,0.100792
1552636583.874856,0,0,0.004277,0.006437,0.101041
1552636583.913205,0,0,0.004178,0.006363,0.100842
1552636583.931552,0,0,0.004178,0.006338,0.100892
1552636583.949597,0,0,0.004277,0.006338,0.100643
1552636583.967441,0,0,0.004326,0.006462,0.100767
1552636583.985373,0,0,0.004203,0.006487,0.100743
1552636584.003401,0,0,0.004178,0.006561,0.100867
1552636584.022180,0,0,0.004302,0.006264,0.100767
1552636584.041336,0,0,0.004351,0.006388,0.100966
1552636584.094076,0,0,0.004351,0.006388,0.100966
1552636584.112217,0,0,0.004475,0.006487,0.100618
1552636584.130280,0,0,0.004351,0.006561,0.100792
1552636584.148248,0,0,0.004351,0.006536,0.100743
1552636584.166137,0,0,0.004129,0.006363,0.100817
1552636584.184082,0,0,0.004178,0.006363,0.101041
1552636584.202002,0,0,0.004326,0.006561,0.100718
1552636584.223718,0,0,0.004203,0.006412,0.100767
1552636584.259710,0,0,0.004228,0.006511,0.100718
1552636584.277677,0,0,0.004376,0.006561,0.100593
1552636584.306037,0,0,0.004129,0.006511,0.100966
1552636584.324349,0,0,0.004252,0.006487,0.100991
1552636584.342194,0,0,0.004228,0.006487,0.100743
1552636584.360051,0,0,0.004178,0.006437,0.100966
1552636584.377926,0,0,0.004277,0.006511,0.100743
1552636584.399390,0,0,0.004203,0.006462,0.100668
1552636584.453950,0,0,0.004153,0.006412,0.101016
1552636584.472190,0,0,0.004005,0.006610,0.100096
1552636584.490236,0,0,0.005142,0.007081,0.107750
1552636584.508138,0,0,0.003535,0.005917,0.095574
1552636584.526073,0,0,0.004697,0.006685,0.099003
1552636584.543969,0,0,0.003758,0.006313,0.101737
1552636584.561988,0,0,0.004648,0.006883,0.101414
1552636584.583540,0,0,0.003931,0.012329,0.099575
1552636584.620122,0,0,0.004030,0.007007,0.101016
1552636584.638384,0,0,0.005266,0.007576,0.100941
1552636584.665975,0,0,0.004326,0.006016,0.101264
1552636584.685048,0,0,0.004326,0.000668,0.100420
1552636584.702988,0,0,0.004228,0.006610,0.100892
1552636584.720906,0,0,0.004574,0.006685,0.100867
1552636584.738869,0,0,0.004005,0.006808,0.100792
1552636584.757551,0,0,0.003906,0.005249,0.100668
1552636584.803873,0,0,0.005266,0.006165,0.101115
1552636584.840024,0,0,0.004821,0.000446,0.101165
1552636584.858241,0,0,0.004500,0.006660,0.100668
1552636584.876198,0,0,0.004252,0.007007,0.100246
1552636584.894173,0,0,0.004401,0.006437,0.100917
1552636584.912055,0,0,0.004030,0.006363,0.101215
1552636584.930023,0,0,0.004302,0.006511,0.100593
1552636584.951692,0,0,0.004203,0.006561,0.100718
1552636585.004047,0,0,0.004203,0.006264,0.100718
1552636585.041022,0,0,0.003832,0.000545,0.102581
1552636585.059670,0,0,0.004302,0.006734,0.100096
1552636585.077854,0,0,0.004055,0.006412,0.099674
1552636585.095786,0,0,0.004425,0.005942,0.101985
1552636585.113662,0,0,0.003857,0.005620,0.100693
1552636585.137803,0,0,0.004252,0.006784,0.099351
1552636585.178117,0,0,0.003634,0.006264,0.102084
1552636585.213888,0,0,0.004549,0.006734,0.100917
1552636585.232008,0,0,0.004178,0.005595,0.100072
1552636585.249931,0,0,0.003560,0.006313,0.101140
1552636585.267969,0,0,0.003733,0.006907,0.100221
1552636585.285926,0,0,0.004252,0.006363,0.100718
1552636585.303861,0,0,0.003931,0.006289,0.101140
1552636585.322482,0,0,0.004326,0.006511,0.100941
1552636585.364027,0,0,0.004252,0.006388,0.100693
1552636585.382050,0,0,0.004401,0.006140,0.100767
1552636585.400069,0,0,0.004203,0.006635,0.101041
1552636585.417938,0,0,0.004302,0.006313,0.100519
1552636585.435936,0,0,0.004228,0.006313,0.100941
1552636585.453881,0,0,0.004153,0.012676,0.101016
1552636585.471845,0,0,0.004277,0.006586,0.100569
1552636585.501591,0,0,0.004252,0.006412,0.100817
1552636585.536354,0,0,0.004203,0.006388,0.100693
1552636585.554659,0,0,0.004203,0.006586,0.100693
1552636585.572661,0,0,0.004228,0.006437,0.100917
1552636585.590592,0,0,0.004203,0.006561,0.100842
1552636585.608517,0,0,0.004252,0.006536,0.100892
1552636585.626352,0,0,0.004277,0.006289,0.100867
1552636585.645430,0,0,0.004153,0.000050,0.100668
1552636585.683701,0,0,0.004203,0.006412,0.100618
1552636585.719550,0,0,0.004277,0.006487,0.100817
1552636585.737662,0,0,0.004277,0.006462,0.100941
1552636585.755547,0,0,0.004326,0.006487,0.100991
1552636585.773575,0,0,0.004228,0.006561,0.100668
1552636585.791439,0,0,0.004228,0.006462,0.100867
1552636585.809252,0,0,0.004302,0.006610,0.100792
1552636585.828331,0,0,0.004228,0.006412,0.100792
1552636585.866343,0,0,0.004178,0.006363,0.100743
1552636585.902292,0,0,0.004326,0.006363,0.100743
1552636585.920359,0,0,0.004326,0.006536,0.101066
1552636585.938266,0,0,0.004277,0.006610,0.100718
1552636585.956189,0,0,0.004153,0.006561,0.100991
1552636585.974172,0,0,0.004104,0.006437,0.100917
1552636585.992023,0,0,0.004129,0.006586,0.100718
1552636586.012054,0,0,0.004302,0.006487,0.100718
1552636586.055141,0,0,0.004277,0.006536,0.100917
1552636586.091160,0,0,0.004302,0.006437,0.100842
1552636586.109265,0,0,0.004228,0.006412,0.100991
1552636586.127130,0,0,0.004302,0.006561,0.100668
1552636586.145009,0,0,0.004153,0.006338,0.100867
1552636586.162929,0,0,0.004351,0.006437,0.100743
1552636586.180891,0,0,0.004228,0.006487,0.100991
1552636586.203289,0,0,0.004203,0.006437,0.100867
1552636586.241801,0,0,0.004153,0.006561,0.100817
1552636586.260303,0,0,0.004104,0.000099,0.100817
1552636586.278551,0,0,0.004203,0.006536,0.100867
1552636586.296448,0,0,0.004228,0.006462,0.100966
1552636586.314714,0,0,0.004277,0.006412,0.100743
1552636586.332712,0,0,0.004203,0.006437,0.101016
1552636586.350586,0,0,0.004203,0.006388,0.100743
1552636586.372918,0,0,0.003980,0.006561,0.100867
1552636586.411320,0,0,0.004203,0.006388,0.100842
1552636586.429505,0,0,0.004104,0.006437,0.100941
1552636586.447573,0,0,0.004228,0.006536,0.100743
1552636586.465430,0,0,0.004153,0.006487,0.100941
1552636586.483396,0,0,0.004178,0.006363,0.100767
1552636586.501284,0,0,0.004178,0.006536,0.100941
1552636586.519158,0,0,0.004178,0.006363,0.100767
1552636586.541665,0,0,0.004178,0.006437,0.100618
1552636586.594034,0,0,0.004351,0.006511,0.100892
1552636586.612106,0,0,0.004376,0.006412,0.100892
1552636586.630124,0,0,0.004153,0.006462,0.100593
1552636586.648013,0,0,0.004153,0.006437,0.100693
1552636586.665905,0,0,0.004302,0.006487,0.100718
1552636586.683764,0,0,0.004178,0.006586,0.100693
1552636586.701655,0,0,0.004178,0.006412,0.100792
1552636586.723217,0,0,0.004153,0.006511,0.100842
1552636586.761562,0,0,0.004129,0.006412,0.100743
1552636586.779660,0,0,0.004104,0.006511,0.100643
1552636586.797673,0,0,0.004228,0.006536,0.100792
1552636586.815635,0,0,0.004104,0.006487,0.100817
1552636586.833534,0,0,0.004153,0.006561,0.100867
1552636586.851395,0,0,0.004104,0.006412,0.100991
1552636586.869302,0,0,0.004129,0.006412,0.101066
1552636586.896186,0,0,0.004178,0.006437,0.100917
1552636586.943883,0,0,0.004178,0.006511,0.101016
1552636586.961962,0,0,0.004228,0.006586,0.100693
1552636586.979895,0,0,0.004104,0.006487,0.100991
1552636586.997869,0,0,0.004178,0.006487,0.101090
1552636587.016200,0,0,0.004203,0.006338,0.100767
1552636587.035047,0,0,0.004203,0.006437,0.100593
1552636587.064509,0,0,0.004178,0.006388,0.100718
1552636587.103669,0,0,0.004104,0.006462,0.101090
1552636587.122017,0,0,0.004104,0.006412,0.100941
1552636587.139917,0,0,0.004228,0.006487,0.100941
1552636587.157763,0,0,0.004252,0.006437,0.100618
1552636587.175810,0,0,0.004153,0.006487,0.100643
1552636587.193803,0,0,0.004079,0.006363,0.100618
1552636587.215001,0,0,0.004129,0.006412,0.100892
1552636587.250989,0,0,0.004178,0.006462,0.101041
1552636587.269208,0,0,0.004129,0.006437,0.100743
1552636587.296011,0,0,0.004228,0.006363,0.100593
1552636587.314227,0,0,0.004153,0.006388,0.100718
1552636587.332084,0,0,0.004104,0.006437,0.100892
1552636587.349913,0,0,0.004203,0.012676,0.100892
1552636587.367779,0,0,0.004228,0.006437,0.100892
1552636587.396139,0,0,0.004153,0.006462,0.100718
1552636587.443788,0,0,0.004203,0.006363,0.100792
1552636587.461796,0,0,0.004079,0.006412,0.101115
1552636587.479644,0,0,0.004129,0.000124,0.101041
1552636587.497647,0,0,0.004153,0.006462,0.100966
1552636587.515533,0,0,0.004104,0.006412,0.100743
1552636587.533407,0,0,0.004129,0.006511,0.100767
1552636587.552707,0,0,0.004203,0.006511,0.100643
1552636587.595098,0,0,0.004129,0.006487,0.100743
1552636587.625972,0,0,0.004326,0.006462,0.100892
1552636587.644284,0,0,0.004252,0.006412,0.100842
1552636587.662184,0,0,0.004129,0.006462,0.100792
1552636587.680019,0,0,0.004104,0.006462,0.100817
1552636587.697965,0,0,0.004030,0.006338,0.100743
1552636587.715882,0,0,0.004153,0.006363,0.100892
1552636587.737580,0,0,0.004178,0.006388,0.100767
1552636587.775945,0,0,0.004153,0.006462,0.100668
1552636587.794035,0,0,0.004129,0.006412,0.100941
1552636587.812250,0,0,0.004104,0.006388,0.100817
1552636587.830436,0,0,0.004129,0.006313,0.100892
1552636587.848387,0,0,0.004153,0.006412,0.100767
1552636587.866243,0,0,0.004302,0.006561,0.100767
1552636587.884181,0,0,0.004203,0.006511,0.100991
1552636587.905656,0,0,0.004203,0.006388,0.100941
1552636587.944104,0,0,0.004079,0.006313,0.100519
1552636587.962169,0,0,0.004079,0.006561,0.100618
1552636587.980186,0,0,0.004228,0.006437,0.100941
1552636587.998144,0,0,0.004178,0.006586,0.100941
1552636588.016462,0,0,0.004153,0.006536,0.100991
1552636588.035384,0,0,0.004178,0.006511,0.101041
1552636588.053476,0,0,0.004178,0.006437,0.100718
1552636588.077089,0,0,0.004129,0.006388,0.100767
1552636588.124030,0,0,0.004129,0.006289,0.100767
1552636588.142112,0,0,0.004153,0.006313,0.100668
1552636588.159945,0,0,0.004079,0.006388,0.100618
1552636588.177897,0,0,0.004203,0.006412,0.100718
1552636588.195964,0,0,0.004326,0.006462,0.100867
1552636588.213903,0,0,0.004252,0.006561,0.101090
1552636588.244333,0,0,0.004277,0.006388,0.101264
1552636588.283642,0,0,0.004302,0.006264,0.100494
1552636588.301941,0,0,0.004178,0.006412,0.100345
1552636588.319854,0,0,0.003931,0.006536,0.100668
1552636588.337720,0,0,0.004005,0.000149,0.101066
1552636588.355671,0,0,0.003980,0.006437,0.101140
1552636588.373544,0,0,0.004401,0.006388,0.101240
1552636588.395144,0,0,0.004326,0.006635,0.100966
1552636588.431204,0,0,0.004277,0.000074,0.100494
1552636588.449141,0,0,0.004153,0.006437,0.100693
1552636588.476016,0,0,0.004104,0.006437,0.100966
1552636588.494204,0,0,0.004104,0.006561,0.101140
1552636588.512009,0,0,0.004203,0.006586,0.100792
1552636588.529866,0,0,0.004153,0.006586,0.100544
1552636588.547733,0,0,0.004326,0.006511,0.100544
1552636588.576162,0,0,0.004055,0.006462,0.100767
1552636588.623822,0,0,0.004104,0.006412,0.100941
1552636588.641891,0,0,0.004203,0.006536,0.100743
1552636588.659716,0,0,0.004326,0.006586,0.100593
1552636588.677563,0,0,0.004252,0.006041,0.100593
1552636588.695451,0,0,0.004030,0.006363,0.100966
1552636588.713362,0,0,0.004104,0.006685,0.101066
1552636588.732608,0,0,0.004153,0.006264,0.100917
1552636588.773932,0,0,0.004129,0.006883,0.101066
1552636588.792233,0,0,0.004129,0.006412,0.100246
1552636588.810437,0,0,0.004005,0.006189,0.100966
1552636588.828363,0,0,0.004326,0.006759,0.101414
1552636588.846322,0,0,0.004030,0.006289,0.100246
1552636588.864179,0,0,0.004549,0.006437,0.101041
1552636588.881995,0,0,0.004129,0.006635,0.101165
1552636588.901054,0,0,0.004228,0.000124,0.100295
1552636588.943967,0,0,0.004326,0.006660,0.100842
1552636588.976276,0,0,0.004153,0.006214,0.101190
1552636588.994630,0,0,0.004104,0.006833,0.100593
1552636589.012922,0,0,0.004425,0.012676,0.101090
1552636589.031914,0,0,0.004648,0.006610,0.101761
1552636589.050217,0,0,0.003906,0.006041,0.100320
1552636589.067973,0,0,0.004104,0.006759,0.100593
1552636589.099239,0,0,0.004178,0.006487,0.101438
1552636589.135103,0,0,0.004771,0.006586,0.101886
1552636589.154984,0,0,0.003412,0.006165,0.100469
1552636589.172964,0,0,0.004178,0.006165,0.100072
1552636589.191062,0,0,0.004870,0.007551,0.101935
1552636589.211441,0,0,0.004104,0.006313,0.100718
1552636589.229698,0,0,0.004203,0.006412,0.100718
1552636589.247962,0,0,0.004055,0.006437,0.101264
1552636814.580859,0,0,0.005315,0.006388,0.101488
1552636814.599548,0,0,0.003362,0.006957,0.100743
1552636814.617892,0,0,0.004500,0.006289,0.100444
1552636814.637826,0,0,0.003857,0.006264,0.101339
1552636814.655829,0,0,0.004450,0.006660,0.100569
1552636814.673688,0,0,0.004277,0.006858,0.100295
1552636814.693486,0,0,0.004302,0.000025,0.101115
1552636814.739223,0,0,0.004203,0.006437,0.100569
1552636814.774765,0,0,0.004129,0.006487,0.101240
1552636814.794010,0,0,0.004376,0.006338,0.100718
1552636814.811965,0,0,0.004351,0.006363,0.101041
1552636814.830280,0,0,0.004277,0.006363,0.100867
1552636814.850087,0,0,0.004104,0.006586,0.100668
1552636814.867780,0,0,0.004178,0.006437,0.100867
1552636814.912203,0,0,0.004079,0.006536,0.101140
1552636814.946895,0,0,0.004153,0.006635,0.101066
1552636814.965015,0,0,0.004079,0.006214,0.100718
1552636814.982898,0,0,0.004030,0.006635,0.100767
1552636815.000765,0,0,0.004252,0.006437,0.101066
1552636815.018708,0,0,0.004153,0.006462,0.100693
1552636815.036636,0,0,0.004153,0.006511,0.100668
1552636815.086165,0,0,0.004178,0.006487,0.100395
1552636815.104390,0,0,0.004079,0.006437,0.100693
1552636815.122258,0,0,0.004302,0.006487,0.101066
1552636815.140136,0,0,0.004326,0.006511,0.100618
1552636815.157998,0,0,0.004104,0.006313,0.100817
1552636815.175900,0,0,0.004277,0.006660,0.100345
1552636815.203222,0,0,0.003436,0.007031,0.101488
1552636815.237210,0,0,0.004475,0.007304,0.099823
1552636815.255356,0,0,0.003659,0.012379,0.101911
1552636815.273137,0,0,0.005315,0.006016,0.101339
1552636815.291380,0,0,0.003659,0.006635,0.099177
1552636815.310165,0,0,0.004376,0.006214,0.101140
1552636815.328430,0,0,0.004302,0.006511,0.101886
1552636815.350744,0,0,0.004153,0.000025,0.100246
1552636815.396864,0,0,0.003931,0.006363,0.100544
1552636815.432673,0,0,0.004178,0.012577,0.101115
1552636815.452642,0,0,0.004104,0.006388,0.100544
1552636815.470718,0,0,0.004351,0.012676,0.101066
1552636815.488633,0,0,0.003980,0.006635,0.100792
1552636815.509071,0,0,0.004178,0.006412,0.100643
1552636815.527316,0,0,0.004326,0.006388,0.100767
1552636815.576856,0,0,0.004302,0.006536,0.100817
1552636815.612520,0,0,0.004376,0.012651,0.101190
1552636815.632437,0,0,0.004129,0.006462,0.100941
1552636815.650469,0,0,0.004302,0.006610,0.100693
1552636815.668364,0,0,0.004203,0.006363,0.100867
1552636815.688173,0,0,0.004252,0.006586,0.100767
1552636815.706182,0,0,0.004277,0.006487,0.100842
1552636815.729099,0,0,0.004228,0.006511,0.100941
1552636815.776421,0,0,0.004178,0.006586,0.100792
1552636815.794286,0,0,0.004277,0.006338,0.100867
1552636815.812286,0,0,0.004153,0.006561,0.100867
1552636815.832157,0,0,0.004005,0.006115,0.100817
1552636815.850350,0,0,0.004351,0.006660,0.100917
1552636815.868235,0,0,0.004129,0.006462,0.100892
1552636815.910805,0,0,0.004228,0.012503,0.100817
1552636815.946443,0,0,0.004030,0.006536,0.100743
1552636815.966666,0,0,0.004252,0.006388,0.101240
1552636815.984677,0,0,0.004302,0.006610,0.100743
1552636816.002630,0,0,0.004228,0.006412,0.100718
1552636816.023601,0,0,0.004228,0.006561,0.100867
1552636816.042833,0,0,0.004055,0.006388,0.100593
1552636816.083853,0,0,0.004228,0.006462,0.100718
1552636816.119773,0,0,0.004178,0.006462,0.101016
1552636816.138263,0,0,0.004302,0.006511,0.100792
1552636816.156329,0,0,0.004104,0.006610,0.101066
1552636816.174199,0,0,0.004203,0.006363,0.100917
1552636816.192017,0,0,0.004129,0.006313,0.100917
1552636816.209926,0,0,0.004153,0.006487,0.100867
1552636816.275576,0,0,0.004277,0.006462,0.100867
1552636816.311301,0,0,0.004277,0.006388,0.100941
1552636816.329659,0,0,0.004104,0.006437,0.101115
1552636816.347615,0,0,0.004030,0.006511,0.100792
1552636816.365485,0,0,0.004252,0.006561,0.100643
1552636816.383388,0,0,0.004228,0.006313,0.100842
1552636816.401310,0,0,0.004178,0.006388,0.100767
1552636816.429796,0,0,0.004178,0.006437,0.100892
1552636816.474658,0,0,0.004153,0.006388,0.100892
1552636816.492812,0,0,0.004203,0.006610,0.100817
1552636816.510762,0,0,0.004104,0.006487,0.100842
1552636816.528323,0,0,0.004153,0.006511,0.100892
1552636816.545774,0,0,0.004079,0.006338,0.100917
1552636816.563037,0,0,0.004104,0.006511,0.100817
1552636816.589593,0,0,0.004104,0.006709,0.100767
1552636816.624822,0,0,0.004203,0.006635,0.100643
1552636816.642338,0,0,0.004104,0.006437,0.100966
1552636816.659650,0,0,0.004326,0.006388,0.100817
1552636816.677065,0,0,0.003980,0.006363,0.100941
1552636816.694293,0,0,0.004351,0.006586,0.100867
1552636816.711590,0,0,0.004203,0.006462,0.100991
1552636816.731900,0,0,0.004252,0.006363,0.100867
1552636816.749167,0,0,0.004178,0.006487,0.100941
1552636816.776226,0,0,0.004104,0.006511,0.100842
1552636816.793644,0,0,0.004277,0.006586,0.100817
1552636816.810914,0,0,0.004351,0.006388,0.100817
1552636816.828164,0,0,0.004252,0.006561,0.100941
1552636816.845458,0,0,0.004079,0.006338,0.100892
1552636816.870070,0,0,0.004252,0.006586,0.100941
1552636816.905248,0,0,0.004277,0.006511,0.100917
1552636816.922642,0,0,0.004203,0.006412,0.100767
1552636816.939936,0,0,0.004178,0.006487,0.100792
1552636816.957161,0,0,0.004277,0.006412,0.100817
1552636816.974494,0,0,0.004178,0.006536,0.100991
1552636816.991804,0,0,0.004178,0.006313,0.100867
1552636817.013194,0,0,0.004277,0.006561,0.100842
1552636817.048790,0,0,0.004153,0.006388,0.100867
1552636817.066385,0,0,0.004277,0.006487,0.101016
1552636817.083743,0,0,0.004277,0.006561,0.100867
1552636817.101027,0,0,0.004277,0.006313,0.100941
1552636817.118354,0,0,0.004203,0.006437,0.100892
1552636817.135658,0,0,0.004326,0.006536,0.100668
1552636817.160019,0,0,0.004104,0.006412,0.100842
1552636817.195157,0,0,0.004104,0.006388,0.100917
1552636817.212546,0,0,0.004228,0.006511,0.100867
1552636817.230206,0,0,0.004178,0.006214,0.100817
1552636817.248147,0,0,0.004277,0.006685,0.101041
1552636817.266064,0,0,0.004228,0.006437,0.100668
1552636817.283958,0,0,0.004129,0.006487,0.100966
1552636817.310956,0,0,0.004203,0.006313,0.100792
1552636817.346102,0,0,0.004104,0.006536,0.100817
1552636817.363561,0,0,0.004079,0.006363,0.100767
1552636817.380813,0,0,0.004153,0.006586,0.100991
1552636817.398157,0,0,0.004178,0.006462,0.100718
1552636817.415447,0,0,0.004351,0.006412,0.100743
1552636817.432750,0,0,0.004203,0.006289,0.100892
1552636817.459356,0,0,0.004178,0.006511,0.100917
1552636817.494745,0,0,0.004104,0.006412,0.100991
1552636817.512246,0,0,0.004178,0.006536,0.100892
1552636817.539339,0,0,0.004129,0.006487,0.100917
1552636817.556648,0,0,0.004153,0.006487,0.100767
1552636817.574234,0,0,0.004178,0.006536,0.100842
1552636817.591670,0,0,0.004252,0.006561,0.100966
1552636817.632137,0,0,0.004153,0.006561,0.100867
1552636817.649930,0,0,0.004326,0.006536,0.100867
1552636817.676402,0,0,0.004277,0.006338,0.100668
1552636817.694026,0,0,0.004203,0.006363,0.100892
1552636817.711418,0,0,0.004252,0.006511,0.100867
1552636817.729001,0,0,0.004129,0.006437,0.100842
1552636817.746237,0,0,0.004277,0.006561,0.100817
1552636817.770188,0,0,0.004129,0.006586,0.100917
1552636817.806154,0,0,0.004153,0.006437,0.101041
1552636817.824157,0,0,0.004079,0.006388,0.100892
1552636817.841301,0,0,0.004277,0.006412,0.100767
1552636817.858960,0,0,0.004228,0.006660,0.100991
1552636817.876277,0,0,0.004252,0.006487,0.100892
1552636817.893692,0,0,0.004153,0.006363,0.100668
1552636817.917823,0,0,0.004228,0.006388,0.100892
1552636817.962928,0,0,0.004203,0.006784,0.100842
1552636817.980823,0,0,0.004030,0.006363,0.100991
1552636817.998152,0,0,0.004326,0.006437,0.101041
1552636818.016151,0,0,0.004252,0.006487,0.101041
1552636818.034893,0,0,0.004030,0.006214,0.100693
1552636818.052909,0,0,0.004055,0.006412,0.100743
1552636818.125615,0,0,0.004104,0.006536,0.101016
1552636818.164260,0,0,0.004079,0.006610,0.100867
1552636818.182353,0,0,0.003980,0.006264,0.101190
1552636818.200261,0,0,0.004153,0.006511,0.100941
1552636818.218204,0,0,0.004104,0.006363,0.100792
1552636818.237967,0,0,0.004401,0.006487,0.101190
1552636818.255961,0,0,0.004079,0.006635,0.100718
1552636818.284696,0,0,0.004055,0.006388,0.100643
1552636818.325259,0,0,0.004277,0.005100,0.100693
1552636818.343462,0,0,0.005043,0.007353,0.100991
1552636818.362160,0,0,0.003684,0.000099,0.100966
1552636818.380023,0,0,0.004500,0.000297,0.100917
1552636818.397996,0,0,0.004079,0.006784,0.100817
1552636818.415912,0,0,0.004252,0.005496,0.100395
1552636818.464989,0,0,0.003338,0.006388,0.101240
1552636818.483052,0,0,0.004030,0.006883,0.100618
1552636818.500733,0,0,0.004549,0.006982,0.100743
1552636818.518743,0,0,0.003906,0.005868,0.100991
1552636818.536940,0,0,0.004079,0.007625,0.100817
1552636818.554839,0,0,0.003857,0.005843,0.100096
1552636818.577520,0,0,0.004821,0.006685,0.101414
1552636818.625047,0,0,0.004549,0.007576,0.101090
1552636818.660967,0,0,0.003585,0.005917,0.100817
1552636818.678937,0,0,0.004129,0.006016,0.101264
1552636818.696702,0,0,0.004722,0.007799,0.100643
1552636818.714341,0,0,0.003535,0.005447,0.100395
1552636818.732225,0,0,0.004475,0.007031,0.101761
1552636818.749417,0,0,0.003956,0.006239,0.100618
1552636818.769149,0,0,0.004722,0.007254,0.100618
1552636818.804381,0,0,0.004055,0.012577,0.101240
1552636818.821775,0,0,0.003535,0.005719,0.100320
1552636818.839112,0,0,0.004722,0.006784,0.101563
1552636818.856419,0,0,0.003758,0.005991,0.100718
1552636818.873770,0,0,0.004623,0.006883,0.100618
1552636818.891032,0,0,0.004351,0.006165,0.100867
1552636818.918200,0,0,0.003956,0.006685,0.101264
1552636818.946224,0,0,0.004401,0.006586,0.100593
1552636818.963679,0,0,0.004055,0.006239,0.100892
1552636818.981026,0,0,0.004326,0.006412,0.100991
1552636818.998380,0,0,0.003609,0.005496,0.100494
1552636819.016209,0,0,0.005291,0.007229,0.101414
1552636819.034100,0,0,0.003313,0.006759,0.100892
1552636819.061292,0,0,0.004574,0.006066,0.101041
1552636819.096661,0,0,0.003956,0.005793,0.100593
1552636819.114244,0,0,0.004203,0.007452,0.100867
1552636819.131546,0,0,0.003758,0.005868,0.101314
1552636819.148716,0,0,0.004450,0.007130,0.100792
1552636819.165891,0,0,0.004153,0.006437,0.100743
1552636819.183205,0,0,0.004450,0.006462,0.100743
1552636819.209743,0,0,0.003881,0.006487,0.101289
1552636819.244956,0,0,0.004351,0.006660,0.100817
1552636819.262401,0,0,0.004030,0.006189,0.101339
1552636819.279661,0,0,0.004104,0.006437,0.100718
1552636819.296940,0,0,0.004178,0.006586,0.100643
1552636819.314208,0,0,0.004203,0.006561,0.100917
1552636819.331465,0,0,0.004104,0.006536,0.100792
1552636819.360361,0,0,0.004326,0.006462,0.100991
1552636819.395911,0,0,0.004326,0.006462,0.100941
1552636819.414041,0,0,0.004129,0.006363,0.100941
1552636819.431921,0,0,0.004277,0.006437,0.100892
1552636819.449595,0,0,0.004129,0.006338,0.100842
1552636819.467557,0,0,0.004277,0.006586,0.100966
1552636819.485522,0,0,0.004153,0.006363,0.100718
1552636819.511847,0,0,0.004203,0.006412,0.101115
1552636819.547265,0,0,0.004252,0.006511,0.100892
1552636819.565117,0,0,0.004178,0.006511,0.100941
1552636819.583462,0,0,0.004129,0.006511,0.100917
1552636819.601506,0,0,0.004153,0.006511,0.100991
1552636819.619427,0,0,0.004079,0.006511,0.100817
1552636819.637620,0,0,0.004252,0.006412,0.100867
1552636819.662226,0,0,0.004376,0.006561,0.100917
1552636819.706753,0,0,0.004153,0.006437,0.100842
1552636819.724826,0,0,0.004178,0.006437,0.100867
1552636819.742777,0,0,0.004178,0.006313,0.100917
1552636819.762838,0,0,0.004302,0.006363,0.100743
1552636819.780576,0,0,0.004228,0.006685,0.100917
1552636819.802490,0,0,0.004351,0.006660,0.100892
1552636819.854682,0,0,0.004228,0.006635,0.100767
1552636819.874866,0,0,0.004129,0.006462,0.100743
1552636819.892852,0,0,0.004079,0.006462,0.100668
1552636819.910745,0,0,0.004178,0.006412,0.100618
1552636819.930820,0,0,0.004277,0.006412,0.100817
1552636819.948852,0,0,0.004129,0.006363,0.101090
1552636819.973711,0,0,0.004203,0.006586,0.101016
1552636820.015061,0,0,0.004178,0.006338,0.100792
1552636820.036418,0,0,0.004302,0.006437,0.100792
1552636820.054757,0,0,0.004252,0.006462,0.100817
1552636820.072638,0,0,0.004104,0.006536,0.101016
1552636820.092803,0,0,0.004277,0.006487,0.100892
1552636820.110888,0,0,0.003980,0.006511,0.100743
1552636820.157156,0,0,0.004228,0.006388,0.100767
1552636820.192864,0,0,0.004203,0.006462,0.100941
1552636820.211056,0,0,0.004252,0.006561,0.100718
1552636820.228950,0,0,0.004252,0.006437,0.101066
1552636820.246791,0,0,0.004178,0.006586,0.100867
1552636820.264735,0,0,0.004252,0.006412,0.100867
1552636820.282947,0,0,0.004153,0.006313,0.101090
1552636820.309745,0,0,0.004104,0.006561,0.100618
1552636820.354805,0,0,0.004055,0.006462,0.100867
1552636820.372930,0,0,0.004129,0.006363,0.100743
1552636820.390774,0,0,0.004277,0.006660,0.100966
1552636820.408702,0,0,0.004326,0.006338,0.100941
1552636820.426457,0,0,0.004401,0.006388,0.100941
1552636820.444419,0,0,0.004302,0.006586,0.100743
1552636820.471995,0,0,0.004252,0.006536,0.100743
1552636820.506893,0,0,0.004302,0.006437,0.100991
1552636820.525406,0,0,0.004623,0.006412,0.100643
1552636820.543364,0,0,0.004178,0.006635,0.100867
1552636820.561235,0,0,0.003956,0.000198,0.101687
1552636820.579002,0,0,0.003931,0.006487,0.100395
1552636820.596983,0,0,0.004178,0.006511,0.100643
1552636820.650127,0,0,0.003881,0.012602,0.100867
1552636820.686013,0,0,0.004302,0.006338,0.101215
1552636820.704062,0,0,0.004450,0.006536,0.100892
1552636820.721986,0,0,0.004475,0.006487,0.100643
1552636820.739928,0,0,0.003956,0.006561,0.101090
1552636820.760119,0,0,0.004277,0.006412,0.101140
1552636820.800286,0,0,0.004252,0.006313,0.100693
1552636820.818440,0,0,0.004203,0.006487,0.100469
1552636820.846876,0,0,0.004005,0.006388,0.101339
1552636820.864573,0,0,0.004055,0.006561,0.100643
1552636820.882447,0,0,0.004401,0.006412,0.100693
1552636820.900283,0,0,0.004178,0.006437,0.101438
1552636820.918056,0,0,0.004203,0.006586,0.100792
1552636820.949797,0,0,0.004252,0.006561,0.100494
1552636820.977014,0,0,0.004055,0.006462,0.100718
1552636820.995090,0,0,0.004129,0.006388,0.101016
1552636821.013259,0,0,0.004153,0.006462,0.100892
1552636821.031934,0,0,0.004104,0.006313,0.100842
1552636821.050057,0,0,0.004277,0.006462,0.101041
1552636821.068034,0,0,0.004178,0.006536,0.100693
1552636821.112125,0,0,0.004252,0.006487,0.100966
1552636821.130053,0,0,0.004079,0.006635,0.100817
1552636821.156976,0,0,0.004178,0.006610,0.100842
1552636821.174886,0,0,0.004203,0.006586,0.100941
1552636821.192668,0,0,0.003832,0.005818,0.100817
1552636821.210621,0,0,0.004228,0.008022,0.098531
1552636821.228531,0,0,0.005760,0.000470,0.103725
1552636821.294744,0,0,0.004104,0.005422,0.102606
1552636821.330287,0,0,0.003956,0.005620,0.099798
1552636821.348512,0,0,0.003832,0.006734,0.101935
1552636821.366697,0,0,0.004376,0.005843,0.100792
1552636821.384810,0,0,0.004277,0.006709,0.100618
1552636821.402770,0,0,0.004524,0.007106,0.101389
1552636821.420674,0,0,0.004846,0.006883,0.101836
1552636821.467172,0,0,0.004277,0.007007,0.099674
1552636821.503019,0,0,0.004821,0.005793,0.101066
1552636821.521399,0,0,0.004771,0.007130,0.100146
1552636821.539099,0,0,0.003783,0.000099,0.101911
1552636821.556867,0,0,0.004598,0.012404,0.100121
1552636821.574906,0,0,0.004895,0.006388,0.100991
1552636821.592882,0,0,0.003066,0.006462,0.101612
1552636821.619850,0,0,0.003931,0.006437,0.100295
1552636821.664545,0,0,0.004524,0.005843,0.101935
1552636821.682733,0,0,0.004771,0.006883,0.099773
1552636821.700456,0,0,0.004401,0.006487,0.100047
1552636821.718285,0,0,0.004055,0.006487,0.095474
1552636821.736278,0,0,0.004870,0.006586,0.100295
1552636821.754155,0,0,0.004450,0.006586,0.101935
1552636821.780851,0,0,0.003412,0.005967,0.101637
1552636821.816948,0,0,0.004697,0.006140,0.102333
1552636821.835069,0,0,0.003387,0.006610,0.099997
1552636821.852952,0,0,0.005167,0.006635,0.099749
1552636821.870818,0,0,0.003634,0.006214,0.101886
1552636821.888634,0,0,0.004351,0.006561,0.100569
1552636821.906571,0,0,0.004549,0.006586,0.100618
1552636821.939046,0,0,0.004005,0.006338,0.101289
1552636821.966990,0,0,0.004277,0.007130,0.099923
1552636821.985328,0,0,0.005538,0.006462,0.101786
1552636822.003275,0,0,0.003140,0.005521,0.102606
1552636822.021733,0,0,0.004821,0.007229,0.098506
1552636822.040231,0,0,0.003783,0.006883,0.101861
1552636822.058222,0,0,0.003931,0.005744,0.101761
1552636822.107075,0,0,0.003931,0.006363,0.101364
1552636822.125115,0,0,0.004524,0.006140,0.101662
1552636822.142906,0,0,0.004153,0.006536,0.100320
1552636822.160606,0,0,0.004055,0.006932,0.101115
1552636822.178553,0,0,0.004623,0.006338,0.100991
1552636822.196293,0,0,0.004277,0.006561,0.100867
1552636822.224121,0,0,0.004030,0.006041,0.100941
1552636822.274936,0,0,0.004203,0.006437,0.100817
1552636822.293092,0,0,0.004055,0.006734,0.100693
1552636822.310979,0,0,0.004326,0.006586,0.100743
1552636822.328850,0,0,0.004178,0.006437,0.100991
1552636822.346759,0,0,0.004228,0.006437,0.101140
1552636822.364550,0,0,0.004129,0.006363,0.100693
1552636822.391781,0,0,0.004302,0.006561,0.100668
1552636822.426902,0,0,0.004401,0.006610,0.100718
1552636822.444922,0,0,0.004079,0.006487,0.100693
1552636822.462908,0,0,0.004401,0.006536,0.100941
1552636822.480783,0,0,0.004203,0.006363,0.100643
1552636822.498753,0,0,0.004079,0.006561,0.100941
1552636822.517208,0,0,0.004153,0.006487,0.100767
1552636822.562571,0,0,0.004203,0.006487,0.101066
1552636822.598448,0,0,0.004376,0.006660,0.100469
1552636822.618288,0,0,0.004648,0.007724,0.101314
1552636822.636292,0,0,0.003511,0.004902,0.100221
1552636822.654221,0,0,0.005291,0.007378,0.101264
1552636822.674101,0,0,0.003461,0.006363,0.101016
1552636822.692081,0,0,0.004945,0.006734,0.100444
1552636822.733160,0,0,0.003634,0.006511,0.100892
1552636822.769057,0,0,0.004055,0.000322,0.100618
1552636822.788903,0,0,0.004104,0.006660,0.100643
1552636822.806993,0,0,0.004425,0.006610,0.100668
1552636822.824737,0,0,0.003832,0.006264,0.101066
1552636822.844225,0,0,0.004277,0.006610,0.100842
1552636822.862100,0,0,0.004055,0.006289,0.100569
1552636822.880901,0,0,0.004252,0.006660,0.100892
1552636822.927763,0,0,0.004326,0.000025,0.100792
1552636822.963422,0,0,0.004277,0.006338,0.100941
1552636822.983175,0,0,0.004326,0.006412,0.100941
1552636823.001167,0,0,0.004401,0.006388,0.100743
1552636823.019769,0,0,0.004178,0.000173,0.100941
1552636823.040694,0,0,0.004104,0.006437,0.101066
1552636823.058772,0,0,0.004302,0.006536,0.101066
1552636823.083235,0,0,0.004351,0.006561,0.100817
1552636823.124624,0,0,0.004302,0.006536,0.100917
1552636823.144299,0,0,0.004129,0.006363,0.100991
1552636823.162311,0,0,0.004203,0.006487,0.100817
1552636823.180266,0,0,0.004228,0.006487,0.100892
1552636823.199830,0,0,0.004079,0.006462,0.100668
1552636823.217956,0,0,0.004030,0.006536,0.100966
1552636823.238049,0,0,0.004079,0.006388,0.100966
1552636823.286327,0,0,0.004326,0.006388,0.100718
1552636823.322100,0,0,0.004153,0.006536,0.100817
1552636823.341805,0,0,0.004326,0.006561,0.100991
1552636823.359480,0,0,0.004326,0.006462,0.101041
1552636823.377363,0,0,0.004203,0.006388,0.100867
1552636823.397030,0,0,0.003881,0.006437,0.100892
1552636823.414989,0,0,0.004178,0.006561,0.100966
1552636823.441883,0,0,0.004129,0.006561,0.100792
1552636823.484643,0,0,0.004178,0.006561,0.100817
1552636823.504948,0,0,0.004252,0.006462,0.100618
1552636823.522905,0,0,0.004153,0.012651,0.101016
1552636823.540534,0,0,0.004326,0.006388,0.100867
1552636823.560048,0,0,0.004203,0.006412,0.100966
1552636823.577803,0,0,0.004178,0.006462,0.100792
1552636823.625038,0,0,0.004228,0.006412,0.100817
1552636823.643198,0,0,0.004376,0.000149,0.100643
1552636823.660948,0,0,0.003931,0.006214,0.100792
1552636823.678824,0,0,0.004450,0.006511,0.100966
1552636823.696665,0,0,0.004401,0.005719,0.100917
1552636823.714510,0,0,0.003881,0.007452,0.101289
1552636823.741840,0,0,0.004500,0.006685,0.100618
1552636823.776884,0,0,0.003931,0.006388,0.100991
1552636823.794904,0,0,0.004450,0.006412,0.100867
1552636823.812618,0,0,0.003758,0.006487,0.100817
1552636823.830451,0,0,0.004351,0.006437,0.101165
1552636823.848307,0,0,0.004030,0.006561,0.100817
1552636823.866154,0,0,0.004178,0.006635,0.100867
1552636823.897910,0,0,0.004178,0.006511,0.100917
1552636823.926906,0,0,0.004228,0.006388,0.100966
1552636823.944894,0,0,0.004178,0.006561,0.100817
1552636823.962968,0,0,0.004401,0.007526,0.101066
1552636823.980800,0,0,0.003585,0.005645,0.100593
1552636823.998662,0,0,0.004796,0.012329,0.101090
1552636824.017047,0,0,0.004104,0.006214,0.100668
1552636824.063179,0,0,0.004450,0.012627,0.101090
1552636824.098952,0,0,0.004228,0.006313,0.100817
1552636824.117427,0,0,0.004153,0.006363,0.100792
1552636824.135344,0,0,0.004203,0.006511,0.100693
1552636824.153193,0,0,0.004104,0.006511,0.100941
1552636824.171079,0,0,0.004203,0.006437,0.100917
1552636824.188967,0,0,0.004153,0.006635,0.100643
1552636824.210557,0,0,0.004153,0.006388,0.100618
1552636824.247222,0,0,0.004252,0.006561,0.100842
1552636824.282902,0,0,0.004203,0.006462,0.101115
1552636824.301206,0,0,0.004178,0.006511,0.101016
1552636824.319309,0,0,0.004153,0.006511,0.100792
1552636824.337218,0,0,0.004203,0.006313,0.101016
1552636824.355097,0,0,0.004277,0.006610,0.100892
1552636824.372958,0,0,0.004228,0.006388,0.100817
1552636824.394165,0,0,0.004302,0.006437,0.100842
1552636824.430310,0,0,0.004228,0.006412,0.100892
1552636824.448534,0,0,0.004277,0.006363,0.100917
1552636824.476936,0,0,0.004079,0.006264,0.100643
1552636824.494875,0,0,0.004178,0.006388,0.100767
1552636824.512765,0,0,0.004178,0.006462,0.100867
1552636824.530639,0,0,0.004079,0.006388,0.101016
1552636824.548651,0,0,0.004228,0.006412,0.100892
1552636824.573787,0,0,0.004228,0.006338,0.100842
1552636824.624803,0,0,0.004203,0.006462,0.101066
1552636824.642893,0,0,0.004129,0.006437,0.100743
1552636824.660754,0,0,0.004104,0.006487,0.100792
1552636824.678728,0,0,0.004178,0.006412,0.100917
1552636824.696669,0,0,0.004203,0.006462,0.100817
1552636824.714584,0,0,0.004153,0.006635,0.100892
1552636824.737017,0,0,0.004104,0.006412,0.100792
1552636824.775095,0,0,0.004326,0.006536,0.100842
1552636824.811023,0,0,0.004030,0.006412,0.101140
1552636824.829080,0,0,0.004228,0.006586,0.100792
1552636824.846942,0,0,0.004178,0.006412,0.100767
1552636824.864845,0,0,0.004178,0.006437,0.100966
1552636824.882746,0,0,0.004104,0.006536,0.100867
1552636824.900569,0,0,0.004129,0.006313,0.100718
1552636824.923140,0,0,0.004277,0.006635,0.100917
1552636824.974953,0,0,0.004302,0.006437,0.100792
1552636824.993016,0,0,0.004252,0.006610,0.100618
1552636825.015944,0,0,0.004228,0.006462,0.100917
1552636825.034853,0,0,0.004055,0.006536,0.101016
1552636825.052887,0,0,0.004104,0.006487,0.100892
1552636825.070777,0,0,0.004376,0.006437,0.100817
1552636825.088743,0,0,0.004302,0.006462,0.100892
1552636825.132762,0,0,0.004129,0.006388,0.100867
1552636825.168788,0,0,0.004203,0.006363,0.101041
1552636825.186868,0,0,0.004178,0.006511,0.100767
1552636825.204783,0,0,0.004228,0.006289,0.100867
1552636825.222729,0,0,0.004203,0.006462,0.100817
1552636825.240690,0,0,0.004178,0.006561,0.100917
1552636825.258553,0,0,0.004104,0.006511,0.100917
1552636825.277760,0,0,0.004425,0.006536,0.100743
1552636825.334501,0,0,0.004104,0.006412,0.100767
1552636825.352558,0,0,0.004153,0.006586,0.100792
1552636825.370591,0,0,0.004055,0.006487,0.100792
1552636825.388531,0,0,0.004252,0.006313,0.100867
1552636825.406434,0,0,0.004203,0.006586,0.100842
1552636825.424344,0,0,0.004277,0.006412,0.100842
1552636825.442206,0,0,0.004055,0.006536,0.100892
1552636825.472081,0,0,0.004252,0.006462,0.100941
1552636825.507230,0,0,0.004228,0.006264,0.100966
1552636825.525440,0,0,0.004203,0.006487,0.100917
1552636825.543316,0,0,0.004326,0.006511,0.100668
1552636825.561187,0,0,0.004376,0.006412,0.100991
1552636825.579147,0,0,0.004178,0.006214,0.100842
1552636825.596993,0,0,0.004277,0.006511,0.100892
1552636825.619578,0,0,0.004129,0.006338,0.100743
1552636825.655255,0,0,0.004203,0.006487,0.100743
1552636825.691262,0,0,0.004203,0.006561,0.100743
1552636825.709402,0,0,0.004228,0.006511,0.100991
1552636825.727256,0,0,0.004055,0.006536,0.100743
1552636825.745124,0,0,0.004203,0.006412,0.101140
1552636825.763005,0,0,0.004203,0.006363,0.100966
1552636825.780924,0,0,0.004326,0.006487,0.100718
1552636825.803518,0,0,0.004203,0.006363,0.100867
1552636825.839469,0,0,0.003956,0.006487,0.100817
1552636825.875409,0,0,0.004178,0.006437,0.100966
1552636825.893486,0,0,0.004228,0.006536,0.101090
1552636825.911418,0,0,0.004277,0.006363,0.100941
1552636825.929347,0,0,0.004277,0.012627,0.100693
1552636825.947240,0,0,0.004079,0.006412,0.100767
1552636825.965068,0,0,0.004079,0.006561,0.100668
1552636825.987444,0,0,0.004178,0.006487,0.100743
1552636826.027151,0,0,0.004104,0.006487,0.100767
1552636826.045942,0,0,0.004104,0.006487,0.100991
1552636826.064086,0,0,0.003956,0.005422,0.101066
1552636826.083606,0,0,0.003461,0.007997,0.099401
1552636826.102108,0,0,0.004846,0.005199,0.104396
1552636826.120075,0,0,0.003585,0.012651,0.099127
1552636826.137766,0,0,0.004574,0.007081,0.099152
1552636826.186126,0,0,0.003906,0.011884,0.099351
1552636826.221640,0,0,0.003511,0.006412,0.100270
1552636826.239720,0,0,0.004401,0.005694,0.101240
1552636826.257396,0,0,0.003980,0.000124,0.101538
1552636826.275209,0,0,0.004055,0.006685,0.100246
1552636826.293116,0,0,0.004697,0.006833,0.100966
1552636826.310966,0,0,0.004228,0.006264,0.101612
1552636826.339741,0,0,0.004153,0.006586,0.100519
1552636826.384510,0,0,0.004252,0.006264,0.100867
1552636826.402762,0,0,0.004005,0.006487,0.101215
1552636826.420667,0,0,0.004129,0.006561,0.100519
1552636826.438565,0,0,0.004252,0.006412,0.100867
1552636826.456402,0,0,0.004129,0.006412,0.100966
1552636826.474260,0,0,0.004153,0.006586,0.100544
1552636826.500490,0,0,0.004252,0.000025,0.100817
1552636826.536633,0,0,0.004277,0.006462,0.100842
1552636826.554549,0,0,0.004228,0.006412,0.100917
1552636826.572362,0,0,0.004203,0.006363,0.100792
1552636826.590229,0,0,0.004203,0.006536,0.100693
1552636826.608485,0,0,0.004079,0.006437,0.100643
1552636826.626339,0,0,0.004030,0.006536,0.100917
1552636826.681034,0,0,0.004153,0.006511,0.100643
1552636826.716775,0,0,0.004302,0.006487,0.100941
1552636826.734900,0,0,0.004153,0.006487,0.101165
1552636826.752896,0,0,0.004030,0.006412,0.100991
1552636826.770806,0,0,0.004302,0.006511,0.100593
1552636826.791363,0,0,0.004277,0.006363,0.100867
1552636826.832314,0,0,0.004178,0.006462,0.100867
1552636826.870070,0,0,0.004153,0.006338,0.100817
1552636826.887756,0,0,0.004228,0.006388,0.100817
1552636826.905394,0,0,0.004178,0.006635,0.100693
1552636826.923278,0,0,0.004104,0.006437,0.101016
1552636826.941216,0,0,0.004005,0.006487,0.101016
1552636826.970006,0,0,0.004153,0.006511,0.100991
1552636827.005856,0,0,0.004203,0.006437,0.100718
1552636827.024432,0,0,0.004178,0.006536,0.100917
1552636827.042880,0,0,0.004203,0.006511,0.100792
1552636827.060868,0,0,0.004326,0.006412,0.100917
1552636827.078720,0,0,0.004153,0.006437,0.100966
1552636827.096701,0,0,0.004425,0.006487,0.100867
1552636827.145938,0,0,0.004153,0.006487,0.100867
1552636827.163908,0,0,0.004129,0.006561,0.100842
1552636827.181674,0,0,0.004203,0.006462,0.100991
1552636827.199331,0,0,0.004153,0.006437,0.100718
1552636827.217222,0,0,0.004228,0.006487,0.100842
1552636827.235055,0,0,0.004252,0.006437,0.100718
1552636827.260623,0,0,0.004252,0.012676,0.100941
1552636827.296191,0,0,0.004252,0.000248,0.100817
1552636827.314354,0,0,0.004153,0.006437,0.101041
1552636827.332190,0,0,0.004178,0.006437,0.100892
1552636827.350108,0,0,0.004252,0.006388,0.100593
1552636827.367969,0,0,0.004326,0.006511,0.100991
1552636827.385694,0,0,0.004351,0.006511,0.101041
1552636827.417453,0,0,0.004153,0.006437,0.100867
1552636827.446965,0,0,0.004203,0.006437,0.100917
1552636827.465127,0,0,0.003980,0.006462,0.100792
1552636827.483480,0,0,0.004203,0.006487,0.101041
1552636827.501314,0,0,0.004178,0.006412,0.100842
1552636827.519299,0,0,0.004376,0.006388,0.100842
1552636827.537070,0,0,0.004178,0.006511,0.101016
1552636827.586561,0,0,0.004425,0.006610,0.100917
1552636827.604641,0,0,0.004178,0.006437,0.100842
1552636827.622532,0,0,0.004252,0.006610,0.100718
1552636827.640365,0,0,0.004228,0.006239,0.100817
1552636827.658300,0,0,0.004252,0.006437,0.100767
1552636827.676073,0,0,0.004450,0.007056,0.100593
1552636827.701448,0,0,0.003980,0.006066,0.100966
1552636827.736897,0,0,0.004524,0.006610,0.101190
1552636827.755364,0,0,0.003733,0.012552,0.100643
1552636827.773304,0,0,0.003560,0.011810,0.100917
1552636827.791121,0,0,0.004945,0.006214,0.101339
1552636827.808964,0,0,0.003758,0.005967,0.100593
1552636827.826836,0,0,0.004648,0.006437,0.100792
1552636827.848639,0,0,0.004228,0.006685,0.101215
1552636827.897375,0,0,0.004326,0.006313,0.101140
1552636827.915382,0,0,0.004351,0.006784,0.100941
1552636827.933303,0,0,0.004104,0.006388,0.100842
1552636827.953818,0,0,0.004351,0.006561,0.100991
1552636827.971761,0,0,0.003832,0.006363,0.100420
1552636827.989658,0,0,0.004277,0.006660,0.101016
1552636828.023237,0,0,0.004252,0.006165,0.100494
1552636828.057277,0,0,0.004252,0.006388,0.100718
1552636828.078453,0,0,0.004178,0.006536,0.100966
1552636828.096614,0,0,0.004524,0.006759,0.101364
1552636828.115006,0,0,0.004104,0.006214,0.100966
1552636828.136408,0,0,0.004302,0.006338,0.099873
1552636828.159937,0,0,0.004302,0.006734,0.101886
1552636828.198798,0,0,0.004277,0.006412,0.101438
1552636828.234609,0,0,0.004425,0.005892,0.100096
1552636828.255383,0,0,0.004673,0.006858,0.101289
1552636828.273646,0,0,0.004376,0.006511,0.100917
1552636828.291730,0,0,0.004178,0.012651,0.100494
1552636828.312527,0,0,0.004450,0.006412,0.101414
1552636828.330690,0,0,0.004055,0.006189,0.100395
1552636828.354540,0,0,0.004079,0.006388,0.100693
1552636828.394575,0,0,0.004030,0.006289,0.100842
1552636828.415126,0,0,0.004500,0.006808,0.101438
1552636828.433024,0,0,0.003956,0.006388,0.100295
1552636828.451079,0,0,0.004450,0.006784,0.100941
1552636828.471962,0,0,0.004104,0.006462,0.100966
1552636828.490359,0,0,0.004203,0.006313,0.100420
1552636828.513895,0,0,0.004129,0.006462,0.101289
1552636828.554684,0,0,0.004104,0.006264,0.100966
1552636828.573471,0,0,0.004030,0.006511,0.100867
1552636828.591373,0,0,0.004153,0.006412,0.100593
1552636828.609008,0,0,0.004030,0.006586,0.100743
1552636828.628882,0,0,0.004153,0.006437,0.100917
1552636828.646821,0,0,0.004129,0.006437,0.100991
1552636828.673928,0,0,0.004178,0.006536,0.100941
1552636828.714628,0,0,0.004178,0.006487,0.100941
1552636828.734700,0,0,0.004326,0.006388,0.100593
1552636828.752861,0,0,0.004178,0.006536,0.101066
1552636828.770802,0,0,0.004203,0.006388,0.101066
1552636828.790891,0,0,0.004252,0.006511,0.100917
1552636828.808891,0,0,0.004178,0.006586,0.100842
1552636828.827593,0,0,0.004079,0.006462,0.100718
1552636828.876645,0,0,0.004153,0.006462,0.100867
1552636828.894664,0,0,0.004228,0.006289,0.100792
1552636828.912601,0,0,0.004252,0.006511,0.101016
1552636828.932503,0,0,0.004178,0.006487,0.100941
1552636828.950690,0,0,0.004252,0.006412,0.100767
1552636828.968710,0,0,0.004252,0.006462,0.101090
1552636828.997668,0,0,0.004079,0.006412,0.100917
1552636829.035451,0,0,0.004178,0.006487,0.100892
1552636829.055783,0,0,0.004178,0.006561,0.100817
1552636829.074355,0,0,0.004129,0.006239,0.100892
1552636829.092220,0,0,0.004129,0.006437,0.100817
1552636829.127362,0,0,0.004153,0.006561,0.100743
1552636829.177088,0,0,0.004104,0.006437,0.100941
1552636829.213712,0,0,0.004129,0.006412,0.100941
1552636829.234681,0,0,0.004030,0.006511,0.100817
1552636829.252594,0,0,0.004351,0.006487,0.100917
1552636829.271174,0,0,0.004104,0.000248,0.100917
1552636829.291243,0,0,0.003980,0.006511,0.100966
1552636829.309803,0,0,0.004079,0.006363,0.100643
1552636829.327928,0,0,0.004079,0.006511,0.100991
1552636829.368336,0,0,0.004178,0.006437,0.100842
1552636829.403384,0,0,0.004178,0.006338,0.100817
1552636829.422300,0,0,0.004129,0.007526,0.099674
1552636829.440299,0,0,0.005315,0.005744,0.103004
1552636829.457502,0,0,0.003560,0.006041,0.101090
1552636829.476938,0,0,0.004623,0.006932,0.097785
1552636829.494191,0,0,0.003758,0.006660,0.103004
1552636829.516755,0,0,0.003980,0.005571,0.099674
1552636829.565441,0,0,0.003338,0.006759,0.101041
1552636829.582986,0,0,0.004326,0.006189,0.100072
1552636829.600952,0,0,0.004450,0.006883,0.101563
1552636829.620464,0,0,0.004178,0.006709,0.101041
1552636829.638665,0,0,0.004277,0.005967,0.100270
1552636829.656080,0,0,0.004277,0.007279,0.100767
1552636829.676702,0,0,0.003585,0.006140,0.100593
1552636829.724822,0,0,0.003733,0.007155,0.101289
1552636829.742400,0,0,0.004104,0.006734,0.101215
1552636829.760563,0,0,0.003857,0.005694,0.099898
1552636829.777831,0,0,0.004648,0.006685,0.107005
1552636829.795571,0,0,0.003239,0.006462,0.101662
1552636829.812775,0,0,0.004376,0.006016,0.100370
1552636829.832688,0,0,0.004598,0.007056,0.100320
1552636829.872849,0,0,0.004722,0.006487,0.095474
1552636829.907681,0,0,0.004104,0.006140,0.101339
1552636829.925130,0,0,0.004376,0.007007,0.100420
1552636829.942437,0,0,0.004252,0.006264,0.100618
1552636829.961326,0,0,0.004030,0.006536,0.101513
1552636829.978723,0,0,0.004079,0.006561,0.100718
1552636829.995990,0,0,0.004326,0.006561,0.100494
1552636830.027295,0,0,0.004104,0.006264,0.100867
1552636830.056419,0,0,0.004376,0.006511,0.100544
1552636830.075601,0,0,0.004302,0.006437,0.101190
1552636830.093513,0,0,0.004079,0.006635,0.101215
1552636830.111913,0,0,0.004228,0.006660,0.100966
1552636830.129845,0,0,0.004178,0.006363,0.100693
1552636830.148078,0,0,0.004030,0.006313,0.100792
1552636830.197920,0,0,0.004277,0.006462,0.101066
1552636830.215353,0,0,0.004079,0.006586,0.101066
1552636830.232619,0,0,0.004376,0.006462,0.100817
1552636830.251461,0,0,0.004153,0.006858,0.100171
1552636830.268834,0,0,0.003016,0.007848,0.101165
1552636830.286026,0,0,0.006008,0.005942,0.101463
1552636830.314964,0,0,0.002250,0.005224,0.099898
1552636830.346171,0,0,0.004598,0.007923,0.101240
1552636830.365046,0,0,0.004524,0.005694,0.099301
1552636830.382554,0,0,0.004277,0.006858,0.101861
1552636830.399825,0,0,0.003461,0.005818,0.101240
1552636830.418665,0,0,0.004969,0.006957,0.099649
1552636830.435937,0,0,0.003906,0.006165,0.100718
1552636830.458456,0,0,0.004129,0.006709,0.095524
1552636830.495169,0,0,0.004228,0.006635,0.100569
1552636830.512472,0,0,0.003931,0.006239,0.101165
1552636830.529839,0,0,0.004104,0.006363,0.100917
1552636830.547151,0,0,0.004252,0.006536,0.100593
1552636830.564513,0,0,0.004401,0.006066,0.101066
1552636830.581851,0,0,0.003511,0.007947,0.099425
1552636830.599947,0,0,0.005093,0.005224,0.104222
1552636830.618742,0,0,0.003857,0.006709,0.100270
1552636830.664162,0,0,0.003881,0.005422,0.100867
1552636830.681608,0,0,0.004722,0.012404,0.097239
1552636830.698804,0,0,0.003956,0.006883,0.101960
1552636830.716082,0,0,0.003659,0.006833,0.102010
1552636830.733420,0,0,0.004055,0.006165,0.099624
1552636830.750721,0,0,0.004673,0.006412,0.101314
1552636830.776847,0,0,0.003931,0.006338,0.101289
1552636830.811892,0,0,0.005587,0.001659,0.100569
1552636830.830942,0,0,0.004574,0.006586,0.100345
1552636830.848258,0,0,0.004153,0.007130,0.101538
1552636830.865507,0,0,0.004475,0.005917,0.100345
1552636830.883473,0,0,0.003980,0.006759,0.100668
1552636830.901623,0,0,0.003956,0.006487,0.101911
1552636830.936122,0,0,0.004326,0.006635,0.100246
1552636830.966900,0,0,0.004030,0.012627,0.101165
1552636830.987050,0,0,0.004549,0.006759,0.100096
1552636831.005190,0,0,0.004178,0.005991,0.101190
1552636831.024158,0,0,0.003708,0.005744,0.101115
1552636831.045382,0,0,0.004623,0.007774,0.101438
1552636831.063446,0,0,0.004030,0.005793,0.100246
1552636831.103418,0,0,0.004153,0.006957,0.101339
1552636831.140662,0,0,0.003980,0.005991,0.101811
1552636831.159584,0,0,0.003609,0.006140,0.101563
1552636831.177401,0,0,0.004524,0.007130,0.099898
1552636831.195757,0,0,0.004574,0.006363,0.100792
1552636831.213585,0,0,0.004079,0.006462,0.101886
1552636831.231913,0,0,0.004277,0.006289,0.100420
1552636831.250795,0,0,0.004475,0.006685,0.100072
1552636831.271266,0,0,0.004104,0.006264,0.101240
1552636831.314121,0,0,0.004203,0.000198,0.100966
1552636831.331775,0,0,0.004203,0.006709,0.101264
1552636831.349436,0,0,0.004129,0.006388,0.101140
1552636831.366739,0,0,0.004425,0.006536,0.100693
1552636831.384060,0,0,0.004203,0.006388,0.100569
1552636831.401779,0,0,0.003980,0.006338,0.100842
1552636831.419443,0,0,0.004055,0.006437,0.100618
1552636831.454916,0,0,0.004326,0.006189,0.101066
1552636831.490208,0,0,0.004203,0.006660,0.100668
1552636831.508006,0,0,0.004129,0.006239,0.100966
1552636831.525429,0,0,0.003931,0.005447,0.100096
1552636831.542817,0,0,0.004796,0.008368,0.100221
1552636831.560795,0,0,0.002942,0.005150,0.103799
1552636831.578064,0,0,0.004969,0.007403,0.098456
1552636831.596663,0,0,0.003634,0.005868,0.106533
1552636831.632472,0,0,0.004870,0.006313,0.097934
1552636831.649901,0,0,0.004450,0.007205,0.101016
1552636831.676628,0,0,0.003931,0.006610,0.100693
1552636831.694148,0,0,0.004697,0.012503,0.100022
1552636831.711462,0,0,0.004203,0.006907,0.101786
1552636831.728728,0,0,0.004302,0.006338,0.100966
1552636831.746149,0,0,0.004475,0.006066,0.099550
1552636831.765068,0,0,0.003980,0.007477,0.101687
1552636831.800477,0,0,0.004129,0.005595,0.098233
1552636831.817954,0,0,0.005093,0.006264,0.101911
1552636831.835245,0,0,0.004055,0.006140,0.102084
1552636831.852537,0,0,0.003461,0.006264,0.098755
1552636831.869847,0,0,0.004821,0.007229,0.100345
1552636831.887099,0,0,0.003585,0.006239,0.102234
1552636831.906466,0,0,0.004351,0.006115,0.100196
1552636831.942761,0,0,0.004549,0.006734,0.101215
1552636831.960382,0,0,0.005958,0.007254,0.101911
1552636831.977828,0,0,0.002794,0.005298,0.101662
1552636831.995864,0,0,0.004969,0.006759,0.099624
1552636832.014111,0,0,0.003041,0.006858,0.101886
1552636832.032774,0,0,0.004623,0.005694,0.100643
1552636832.051013,0,0,0.004401,0.007155,0.099475
1552636832.100254,0,0,0.003783,0.006363,0.099798
1552636832.136001,0,0,0.003832,0.012602,0.101389
1552636832.154562,0,0,0.004945,0.001213,0.099550
1552636832.172526,0,0,0.004030,0.007205,0.101339
1552636832.190453,0,0,0.003980,0.006685,0.101066
1552636832.208298,0,0,0.004153,0.006388,0.100395
1552636832.226247,0,0,0.004104,0.006289,0.101066
1552636832.246636,0,0,0.003956,0.007106,0.101190
1552636832.286895,0,0,0.003881,0.006289,0.101066
1552636832.304996,0,0,0.004252,0.006363,0.100892
1552636832.323005,0,0,0.004326,0.006214,0.100370
1552636832.340963,0,0,0.004030,0.006388,0.101215
1552636832.358910,0,0,0.004401,0.007700,0.101140
1552636832.376780,0,0,0.003535,0.005521,0.100469
1552636832.394692,0,0,0.004846,0.006932,0.100966
1552636832.413483,0,0,0.003931,0.006090,0.100718
1552636832.450828,0,0,0.004673,0.006561,0.100767
1552636832.468847,0,0,0.004351,0.006561,0.100743
1552636832.496892,0,0,0.004450,0.006586,0.100966
1552636832.514791,0,0,0.003931,0.006165,0.100718
1552636832.532652,0,0,0.004228,0.006685,0.100743
1552636832.550476,0,0,0.004228,0.006487,0.101165
1552636832.568353,0,0,0.004203,0.006363,0.101016
1552636832.586993,0,0,0.004178,0.006487,0.100792
1552636832.605554,0,0,0.004326,0.006561,0.100618
1552636832.654556,0,0,0.004277,0.006586,0.100693
1552636832.672761,0,0,0.004153,0.006462,0.100892
1552636832.690671,0,0,0.004203,0.000099,0.100917
1552636832.708452,0,0,0.004203,0.006462,0.101041
1552636832.726310,0,0,0.004203,0.006487,0.100892
1552636832.744116,0,0,0.004277,0.006511,0.100792
1552636832.769201,0,0,0.004153,0.006487,0.100743
1552636832.804833,0,0,0.004203,0.005298,0.099525
1552636832.822887,0,0,0.009222,0.008195,0.100096
1552636832.840788,0,0,0.000346,0.005422,0.104619
1552636832.858609,0,0,0.004895,0.007081,0.097239
1552636832.876577,0,0,0.004351,0.006635,0.100395
1552636832.894502,0,0,0.003461,0.006289,0.097239
1552636832.946283,0,0,0.005711,0.006685,0.104470
1552636832.976875,0,0,0.005093,0.006586,0.099848
1552636832.995610,0,0,0.004277,0.006264,0.101960
1552636833.014074,0,0,0.003461,0.007056,0.099823
1552636833.033282,0,0,0.005390,0.005298,0.105713
1552636833.055041,0,0,0.003214,0.006016,0.101215
1552636833.073555,0,0,0.003659,0.006239,0.099202
1552636833.114761,0,0,0.003733,0.007304,0.101935
1552636833.151124,0,0,0.005216,0.006338,0.100817
1552636833.172873,0,0,0.003956,0.006264,0.100146
1552636833.191455,0,0,0.003758,0.006214,0.101190
1552636833.209618,0,0,0.004030,0.012478,0.100593
1552636833.231094,0,0,0.004821,0.006833,0.100668
1552636833.254432,0,0,0.004500,0.006487,0.095425
1552636833.273222,0,0,0.004055,0.006610,0.100842
1552636833.307057,0,0,0.004203,0.006313,0.100171
1552636833.325086,0,0,0.004079,0.006214,0.100718
1552636833.345157,0,0,0.004178,0.006536,0.101289
1552636833.363396,0,0,0.004228,0.006784,0.100892
1552636833.381259,0,0,0.004178,0.006685,0.101140
1552636833.399578,0,0,0.004079,0.012552,0.101041
1552636833.420070,0,0,0.004178,0.006561,0.100494
1552636833.466104,0,0,0.004228,0.006388,0.101165
1552636833.484003,0,0,0.004178,0.006511,0.100991
1552636833.501685,0,0,0.004203,0.006412,0.101041
1552636833.519628,0,0,0.004129,0.006388,0.100767
1552636833.536861,0,0,0.004178,0.006313,0.100569
1552636833.554187,0,0,0.004079,0.006462,0.100643
1552636833.591859,0,0,0.004104,0.006412,0.101041
1552636833.609294,0,0,0.004153,0.006610,0.100941
1552636833.626690,0,0,0.004203,0.006734,0.100867
1552636833.644451,0,0,0.004228,0.006487,0.100743
1552636833.661820,0,0,0.004030,0.006388,0.100718
1552636833.679084,0,0,0.004326,0.006437,0.100693
1552636833.697092,0,0,0.004203,0.006313,0.100767
1552636833.715927,0,0,0.004203,0.006313,0.100966
1552636833.751346,0,0,0.004228,0.006511,0.100991
1552636833.768905,0,0,0.004178,0.006586,0.100718
1552636833.786157,0,0,0.004178,0.006487,0.100917
1552636833.803835,0,0,0.004203,0.006412,0.100991
1552636833.821123,0,0,0.003980,0.006264,0.100991
1552636833.838394,0,0,0.004030,0.006487,0.100991
1552636833.856472,0,0,0.004005,0.006536,0.101016
1552636833.891784,0,0,0.004079,0.006487,0.100743
1552636833.909445,0,0,0.004178,0.006610,0.100941
1552636833.936239,0,0,0.004153,0.006412,0.100892
1552636833.953447,0,0,0.004153,0.006511,0.101016
1552636833.970743,0,0,0.004055,0.006487,0.100842
1552636833.988001,0,0,0.004153,0.006363,0.100767
1552636834.005448,0,0,0.004178,0.006511,0.100668
1552636834.024847,0,0,0.004153,0.006610,0.101016
1552636834.069219,0,0,0.004203,0.006487,0.100892
1552636834.105223,0,0,0.004203,0.006586,0.100842
1552636834.124266,0,0,0.004104,0.006437,0.100842
1552636834.142107,0,0,0.004079,0.006363,0.100842
1552636834.159781,0,0,0.004153,0.006264,0.100966
1552636834.178418,0,0,0.004178,0.006462,0.101016
1552636834.196358,0,0,0.004153,0.006536,0.100892
1552636834.217573,0,0,0.004277,0.006561,0.100966
1552636834.256166,0,0,0.004178,0.006487,0.100817
1552636834.291759,0,0,0.004030,0.006437,0.100941
1552636834.310476,0,0,0.004178,0.006412,0.100917
1552636834.328319,0,0,0.004153,0.006437,0.100817
1552636834.346322,0,0,0.004252,0.006462,0.100867
1552636834.364897,0,0,0.004302,0.006635,0.100767
1552636834.382974,0,0,0.004178,0.006338,0.100867
1552636834.408330,0,0,0.004277,0.006462,0.100668
1552636834.454534,0,0,0.004079,0.006437,0.100892
1552636834.473489,0,0,0.004129,0.006487,0.100743
1552636834.491516,0,0,0.004178,0.006462,0.100991
1552636834.509530,0,0,0.004277,0.006487,0.100892
1552636834.528121,0,0,0.004129,0.006363,0.100892
1552636834.546042,0,0,0.004104,0.006536,0.100842
1552636834.564215,0,0,0.004079,0.006536,0.100792
1552636834.615406,0,0,0.004104,0.006635,0.100966
1552636834.633372,0,0,0.004055,0.006313,0.100867
1552636834.651188,0,0,0.004153,0.006437,0.100693
1552636834.669731,0,0,0.004252,0.006536,0.100991
1552636834.687985,0,0,0.004203,0.006561,0.100867
1552636834.705745,0,0,0.004104,0.006412,0.100817
1552636834.724236,0,0,0.004252,0.006437,0.100917
1552636834.749771,0,0,0.004203,0.006586,0.100917
1552636834.794975,0,0,0.004203,0.006511,0.100991
1552636834.813216,0,0,0.004277,0.006437,0.100842
1552636834.831164,0,0,0.004228,0.006511,0.100867
1552636834.849687,0,0,0.004178,0.006511,0.100817
1552636834.867638,0,0,0.004178,0.006536,0.100991
1552636834.885523,0,0,0.004079,0.006561,0.100917
1552636834.912518,0,0,0.004178,0.006511,0.100867
1552636834.954495,0,0,0.004079,0.006412,0.100817
1552636834.981572,0,0,0.004079,0.006462,0.101016
1552636834.999445,0,0,0.004302,0.006239,0.100767
1552636835.022811,0,0,0.004228,0.006412,0.100767
1552636835.042205,0,0,0.004252,0.006561,0.101041
1552636835.073557,0,0,0.004203,0.006462,0.100842
1552636835.106891,0,0,0.004153,0.006462,0.100767
1552636835.124824,0,0,0.004104,0.006511,0.100917
1552636835.142717,0,0,0.004079,0.006462,0.100693
1552636835.160424,0,0,0.004203,0.006511,0.100817
1552636835.179196,0,0,0.004153,0.006412,0.100817
1552636835.197343,0,0,0.004055,0.006363,0.100792
1552636835.216984,0,0,0.004129,0.006437,0.100842
1552636835.269267,0,0,0.004401,0.006487,0.100817
1552636835.305050,0,0,0.004203,0.006412,0.100991
1552636835.323834,0,0,0.003956,0.006363,0.100892
1552636835.341624,0,0,0.004203,0.006313,0.100966
1552636835.359494,0,0,0.004228,0.006338,0.100867
1552636835.377968,0,0,0.003956,0.006511,0.100892
1552636835.395885,0,0,0.004376,0.006437,0.100842
1552636835.421675,0,0,0.004129,0.006388,0.100966
1552636835.464705,0,0,0.004129,0.006487,0.100892
1552636835.483236,0,0,0.004129,0.006511,0.100643
1552636835.501297,0,0,0.004079,0.006412,0.100743
1552636835.519342,0,0,0.004104,0.006511,0.100743
1552636835.537844,0,0,0.004277,0.006487,0.100867
1552636835.555659,0,0,0.004153,0.006487,0.100892
1552636835.584415,0,0,0.004252,0.006561,0.100941
1552636835.624809,0,0,0.004129,0.006561,0.100991
1552636835.643575,0,0,0.004203,0.006388,0.101165
1552636835.661562,0,0,0.004277,0.006388,0.101066
1552636835.679442,0,0,0.004178,0.006511,0.100892
1552636835.697945,0,0,0.004153,0.006388,0.100593
1552636835.716000,0,0,0.003931,0.006536,0.100643
1552636835.744917,0,0,0.003956,0.006561,0.100593
1552636835.784581,0,0,0.004302,0.006462,0.101090
1552636835.803125,0,0,0.004129,0.006635,0.101115
1552636835.821233,0,0,0.004129,0.006610,0.100966
1552636835.839188,0,0,0.004228,0.006437,0.100618
1552636835.857740,0,0,0.004079,0.006437,0.100792
1552636835.875659,0,0,0.004228,0.006437,0.100991
1552636835.904255,0,0,0.004104,0.006462,0.101066
1552636835.944587,0,0,0.004055,0.006487,0.100792
1552636835.970098,0,0,0.004104,0.000223,0.100618
1552636835.988020,0,0,0.004104,0.006462,0.100867
1552636836.006069,0,0,0.004104,0.006388,0.100941
1552636836.024697,0,0,0.004178,0.006462,0.100817
1552636836.047297,0,0,0.004129,0.006586,0.100966
1552636836.085642,0,0,0.004178,0.006660,0.100892
1552636836.103545,0,0,0.004203,0.006412,0.100693
1552636836.121679,0,0,0.004055,0.006363,0.101016
1552636836.139535,0,0,0.004005,0.006487,0.100966
1552636836.157853,0,0,0.004153,0.006462,0.100966
1552636836.175707,0,0,0.004302,0.006511,0.100892
1552636836.193568,0,0,0.004153,0.006561,0.101041
1552636836.215360,0,0,0.004277,0.006610,0.100966
1552636836.253957,0,0,0.004153,0.006487,0.100718
1552636836.272249,0,0,0.003956,0.006338,0.100743
1552636836.290317,0,0,0.004178,0.006536,0.100817
1552636836.308175,0,0,0.004079,0.006487,0.100941
1552636836.326030,0,0,0.004129,0.006437,0.100966
1552636836.344312,0,0,0.004228,0.006487,0.101016
1552636836.362177,0,0,0.004104,0.006462,0.100693
1552636836.391404,0,0,0.004005,0.006388,0.100842
1552636836.427158,0,0,0.004178,0.006462,0.101016
1552636836.445089,0,0,0.004104,0.006437,0.101016
1552636836.462974,0,0,0.004252,0.006412,0.100941
1552636836.480863,0,0,0.004079,0.006338,0.100668
1552636836.498782,0,0,0.004228,0.006536,0.100743
1552636836.516696,0,0,0.004153,0.006561,0.100817
1552636836.535334,0,0,0.004252,0.006561,0.100792
1552636836.574364,0,0,0.004153,0.006487,0.100966
1552636836.609861,0,0,0.004030,0.006363,0.100767
1552636836.628108,0,0,0.004228,0.006610,0.100743
1552636836.645888,0,0,0.004203,0.006437,0.100867
1552636836.663637,0,0,0.004203,0.006462,0.100892
1552636836.681548,0,0,0.004055,0.006363,0.100867
1552636836.699720,0,0,0.004178,0.006388,0.100792
1552636836.721212,0,0,0.004153,0.006437,0.100842
1552636836.757176,0,0,0.004104,0.006338,0.100867
1552636836.792835,0,0,0.004178,0.006536,0.100892
1552636836.810669,0,0,0.004376,0.012676,0.100867
1552636836.828765,0,0,0.004079,0.006412,0.100842
1552636836.846857,0,0,0.004030,0.006388,0.100643
1552636836.864794,0,0,0.004178,0.006487,0.100991
1552636836.882689,0,0,0.004252,0.006338,0.100867
1552636836.904023,0,0,0.004129,0.006536,0.100892
1552636836.942450,0,0,0.004178,0.006412,0.100991
1552636836.960572,0,0,0.004030,0.006586,0.100917
1552636836.978606,0,0,0.004104,0.006412,0.100817
1552636836.996472,0,0,0.004129,0.006462,0.100867
1552636837.014761,0,0,0.004228,0.006437,0.100892
1552636837.033664,0,0,0.004129,0.006536,0.100991
1552636837.051820,0,0,0.004129,0.006313,0.100743
1552636837.071244,0,0,0.004055,0.006437,0.100718
1552636837.114955,0,0,0.004104,0.006437,0.100817
1552636837.133483,0,0,0.004129,0.006462,0.100817
1552636837.151587,0,0,0.004104,0.006561,0.100966
1552636837.169428,0,0,0.004178,0.006487,0.100842
1552636837.187262,0,0,0.004228,0.006487,0.100966
1552636837.205148,0,0,0.004178,0.006487,0.100842
1552636837.222961,0,0,0.004104,0.006487,0.100867
1552636837.241545,0,0,0.004104,0.006511,0.100941
1552636837.260866,0,0,0.004376,0.006437,0.100718
1552636837.304404,0,0,0.004055,0.006462,0.100842
1552636837.322720,0,0,0.004153,0.006487,0.101016
1552636837.340668,0,0,0.004228,0.006610,0.101066
1552636837.358515,0,0,0.004302,0.006635,0.101016
1552636837.376349,0,0,0.004178,0.006561,0.101190
1552636837.394221,0,0,0.004178,0.006610,0.100941
1552636837.415768,0,0,0.004178,0.006487,0.100792
1552636837.451674,0,0,0.004277,0.006511,0.100693
1552636837.469784,0,0,0.004079,0.006586,0.100792
1552636837.496814,0,0,0.003980,0.006610,0.100867
1552636837.515039,0,0,0.004129,0.006363,0.101041
1552636837.532971,0,0,0.004277,0.006487,0.100991
1552636837.550910,0,0,0.004326,0.006412,0.100991
1552636837.568772,0,0,0.004376,0.006437,0.100767
1552636837.590161,0,0,0.004203,0.006437,0.100618
1552636837.644775,0,0,0.003906,0.006487,0.101115
1552636837.680465,0,0,0.004326,0.006437,0.101090
1552636837.698484,0,0,0.004252,0.006338,0.100966
1552636837.716645,0,0,0.004178,0.006734,0.100792
1552636837.734478,0,0,0.003832,0.006536,0.100892
1552636837.752353,0,0,0.004153,0.006239,0.100569
1552636837.770211,0,0,0.004351,0.006561,0.100693
1552636837.792070,0,0,0.004129,0.006709,0.100767
1552636837.844788,0,0,0.004005,0.006586,0.100917
1552636837.862844,0,0,0.004203,0.006635,0.100444
1552636837.880848,0,0,0.004055,0.006214,0.101016
1552636837.898673,0,0,0.004129,0.006437,0.100892
1552636837.916618,0,0,0.004178,0.006388,0.100494
1552636837.934413,0,0,0.004153,0.006660,0.101314
1552636837.952243,0,0,0.004005,0.006635,0.100892
1552636837.974141,0,0,0.004302,0.006338,0.100668
1552636838.012594,0,0,0.004302,0.000569,0.100693
1552636838.032026,0,0,0.004203,0.006586,0.100817
1552636838.050406,0,0,0.004005,0.006635,0.101041
1552636838.068410,0,0,0.004178,0.006487,0.100767
1552636838.086336,0,0,0.004203,0.006561,0.101190
1552636838.104331,0,0,0.004153,0.006189,0.100941
1552636838.122188,0,0,0.004326,0.006412,0.100792
1552636838.140857,0,0,0.004104,0.006536,0.100494
1552636838.159530,0,0,0.004104,0.006536,0.101041
1552636838.204637,0,0,0.003956,0.006561,0.101289
1552636838.222718,0,0,0.004079,0.006511,0.100917
1552636838.240569,0,0,0.004252,0.006536,0.100494
1552636838.258468,0,0,0.004228,0.006313,0.101041
1552636838.276416,0,0,0.003980,0.006561,0.100842
1552636838.294304,0,0,0.004129,0.006239,0.100668
1552636838.313257,0,0,0.004129,0.006561,0.101240
1552636838.352867,0,0,0.004055,0.006536,0.100917
1552636838.388566,0,0,0.004178,0.006932,0.100817
1552636838.406885,0,0,0.004376,0.006536,0.100817
1552636838.424810,0,0,0.003486,0.006561,0.100593
1552636838.442646,0,0,0.003906,0.006883,0.100842
1552636838.460536,0,0,0.004302,0.006759,0.101090
1552636838.478460,0,0,0.004648,0.006561,0.100817
1552636838.499948,0,0,0.004104,0.006511,0.100743
1552636838.554948,0,0,0.004574,0.006313,0.100469
1552636838.572918,0,0,0.004475,0.006982,0.101115
1552636838.590809,0,0,0.003857,0.006363,0.101041
1552636838.608875,0,0,0.004104,0.006511,0.100743
1552636838.626913,0,0,0.003807,0.006313,0.100544
1552636838.644738,0,0,0.004153,0.006610,0.101066
1552636838.667503,0,0,0.004178,0.012577,0.100917
1552636838.703377,0,0,0.004203,0.006388,0.101488
1552636838.739082,0,0,0.004055,0.006635,0.100867
1552636838.757004,0,0,0.004005,0.006289,0.100966
1552636838.774755,0,0,0.004450,0.006363,0.100792
1552636838.792658,0,0,0.004376,0.006511,0.100693
1552636838.810540,0,0,0.004302,0.006511,0.101090
1552636838.828359,0,0,0.004030,0.006363,0.100991
1552636838.851014,0,0,0.004104,0.006437,0.100743
1552636838.886835,0,0,0.004030,0.006437,0.100618
1552636838.922623,0,0,0.004178,0.006561,0.101041
1552636838.940457,0,0,0.004252,0.006858,0.101115
1552636838.958157,0,0,0.004055,0.006586,0.100817
1552636838.976019,0,0,0.004203,0.006511,0.100718
1552636838.993897,0,0,0.004302,0.006586,0.100792
1552636839.012072,0,0,0.004203,0.006487,0.100693
1552636839.036065,0,0,0.004055,0.006437,0.100817
1552636839.074526,0,0,0.003980,0.006536,0.100767
1552636839.092855,0,0,0.004178,0.006536,0.100842
1552636839.110900,0,0,0.004277,0.006561,0.100892
1552636839.128768,0,0,0.004203,0.006536,0.100792
1552636839.146468,0,0,0.004005,0.006536,0.100991
1552636839.164534,0,0,0.004055,0.006388,0.100767
1552636839.182380,0,0,0.004228,0.006635,0.100867
1552636839.208133,0,0,0.004178,0.006363,0.100966
1552636839.243714,0,0,0.004104,0.006511,0.100892
1552636839.261965,0,0,0.004104,0.012676,0.101041
1552636839.279896,0,0,0.004178,0.006487,0.100668
1552636839.297782,0,0,0.004326,0.006388,0.100693
1552636839.316040,0,0,0.004203,0.006511,0.100767
1552636839.334190,0,0,0.004178,0.006388,0.100792
1552636839.363605,0,0,0.004203,0.006635,0.100892
1552636839.396896,0,0,0.004005,0.006363,0.100941
1552636839.415054,0,0,0.004079,0.006437,0.100966
1552636839.432884,0,0,0.004153,0.006610,0.100867
1552636839.450727,0,0,0.004129,0.006363,0.101041
1552636839.468693,0,0,0.004252,0.006610,0.101016
1552636839.486642,0,0,0.004252,0.006536,0.100966
1552636839.516039,0,0,0.004129,0.006561,0.100867
1552636839.546988,0,0,0.004129,0.006437,0.100917
1552636839.565022,0,0,0.004228,0.006635,0.100966
1552636839.582762,0,0,0.004326,0.006487,0.100792
1552636839.600640,0,0,0.004104,0.006363,0.100693
1552636839.618500,0,0,0.004252,0.006561,0.101016
1552636839.636349,0,0,0.004104,0.006561,0.100693
1552636839.657978,0,0,0.004104,0.006511,0.100743
1552636839.696046,0,0,0.003956,0.006536,0.100817
1552636839.714033,0,0,0.004079,0.006487,0.100892
1552636839.732023,0,0,0.004129,0.006511,0.100917
1552636839.749987,0,0,0.004104,0.006561,0.100941
1552636839.767863,0,0,0.004178,0.006511,0.100842
1552636839.785590,0,0,0.004129,0.006511,0.100917
1552636839.803466,0,0,0.004104,0.006437,0.101090
1552636839.825094,0,0,0.004104,0.006784,0.100867
1552636839.861385,0,0,0.004104,0.006388,0.101016
1552636839.879606,0,0,0.004228,0.006561,0.100792
1552636839.906826,0,0,0.004005,0.006462,0.100892
1552636839.924717,0,0,0.004203,0.006561,0.100892
1552636839.942560,0,0,0.004153,0.006437,0.100767
1552636839.960429,0,0,0.004055,0.006511,0.100792
1552636839.978358,0,0,0.004104,0.006487,0.100842
1552636839.997341,0,0,0.004277,0.006536,0.100917
1552636840.034584,0,0,0.004055,0.006536,0.101016
1552636840.070256,0,0,0.004005,0.006462,0.100966
1552636840.088124,0,0,0.004079,0.006462,0.100966
1552636840.105909,0,0,0.004129,0.006437,0.100966
1552636840.124216,0,0,0.004030,0.006437,0.100792
1552636840.142032,0,0,0.004178,0.006734,0.100817
1552636840.159704,0,0,0.004079,0.006412,0.100817
1552636840.181505,0,0,0.004129,0.006511,0.100693
1552636840.234779,0,0,0.004153,0.006437,0.100941
1552636840.270475,0,0,0.004228,0.006511,0.100966
1552636840.288778,0,0,0.004055,0.006487,0.100892
1552636840.306709,0,0,0.004203,0.006511,0.100867
1552636840.324555,0,0,0.004129,0.006487,0.100991
1552636840.342444,0,0,0.004079,0.006437,0.100917
1552636840.360326,0,0,0.004228,0.006536,0.100941
1552636840.382011,0,0,0.004129,0.006536,0.100867
1552636840.434790,0,0,0.004252,0.006338,0.100941
1552636840.470434,0,0,0.004129,0.006487,0.100917
1552636840.488991,0,0,0.004079,0.006388,0.100941
1552636840.506886,0,0,0.004178,0.006586,0.100966
1552636840.524803,0,0,0.004178,0.006462,0.100941
1552636840.542685,0,0,0.004178,0.006586,0.100991
1552636840.560513,0,0,0.004153,0.006561,0.100892
1552636840.582177,0,0,0.004129,0.006635,0.100941
1552636840.635141,0,0,0.004178,0.006561,0.100842
1552636840.670792,0,0,0.004203,0.006635,0.100941
1552636840.689130,0,0,0.004005,0.006610,0.100917
1552636840.707011,0,0,0.004153,0.006561,0.100991
1552636840.724865,0,0,0.004252,0.006437,0.100991
1552636840.742734,0,0,0.004153,0.006635,0.100792
1552636840.760588,0,0,0.004203,0.006511,0.100743
1552636840.782294,0,0,0.004252,0.006412,0.100792
1552636840.834914,0,0,0.004104,0.006462,0.100867
1552636840.870590,0,0,0.004351,0.006437,0.100817
1552636840.888950,0,0,0.004252,0.006709,0.101016
1552636840.906838,0,0,0.004178,0.006561,0.100917
1552636840.924703,0,0,0.003956,0.006511,0.100917
1552636840.942577,0,0,0.003956,0.006511,0.100842
1552636840.960438,0,0,0.004104,0.006412,0.100817
1552636840.979020,0,0,0.004178,0.006511,0.100966
1552636841.039464,0,0,0.004178,0.006437,0.100941
1552636841.075258,0,0,0.004178,0.006412,0.100917
1552636841.093600,0,0,0.004129,0.006313,0.101041
1552636841.111489,0,0,0.004252,0.006635,0.100767
1552636841.129319,0,0,0.004104,0.006511,0.100867
1552636841.147220,0,0,0.004228,0.006388,0.100991
1552636841.165135,0,0,0.004302,0.006487,0.100718
1552636841.186714,0,0,0.004129,0.006561,0.100917
1552636841.225057,0,0,0.004079,0.006536,0.100966
1552636841.243149,0,0,0.004252,0.006536,0.100618
1552636841.261176,0,0,0.004203,0.006635,0.100892
1552636841.279027,0,0,0.004079,0.006487,0.100966
1552636841.296989,0,0,0.004104,0.006511,0.100743
1552636841.314823,0,0,0.004005,0.006561,0.100941
1552636841.332611,0,0,0.004055,0.006437,0.100693
1552636841.354995,0,0,0.004079,0.006536,0.100941
1552636841.390826,0,0,0.004030,0.000248,0.101016
1552636841.409199,0,0,0.004178,0.006536,0.100892
1552636841.436866,0,0,0.004055,0.006412,0.100817
1552636841.454823,0,0,0.004079,0.006487,0.100817
1552636841.472802,0,0,0.004104,0.006412,0.100643
1552636841.490787,0,0,0.004030,0.006610,0.100991
1552636841.508632,0,0,0.004104,0.006462,0.101090
1552636841.530606,0,0,0.004228,0.006487,0.100842
1552636841.584642,0,0,0.004178,0.006511,0.100941
1552636841.620762,0,0,0.004079,0.006511,0.100817
1552636841.638938,0,0,0.004178,0.006363,0.100867
1552636841.656811,0,0,0.004129,0.006487,0.100991
1552636841.674651,0,0,0.003956,0.006511,0.100767
1552636841.692493,0,0,0.004252,0.006437,0.100817
1552636841.710347,0,0,0.004030,0.006511,0.100842
1552636841.728885,0,0,0.004104,0.006487,0.100718
1552636841.767151,0,0,0.004153,0.006536,0.100991
1552636841.802806,0,0,0.004153,0.006561,0.100817
1552636841.820884,0,0,0.004178,0.006610,0.100892
1552636841.838784,0,0,0.004153,0.006586,0.100917
1552636841.856714,0,0,0.004302,0.006511,0.101016
1552636841.874624,0,0,0.003931,0.006363,0.100892
1552636841.892710,0,0,0.003956,0.006487,0.100718
1552636841.920276,0,0,0.004104,0.006462,0.100842
1552636841.956317,0,0,0.004277,0.006388,0.101016
1552636841.974312,0,0,0.004079,0.006462,0.100917
1552636841.992059,0,0,0.003980,0.006462,0.100917
1552636842.010205,0,0,0.004129,0.006437,0.100817
1552636842.028778,0,0,0.004005,0.006561,0.100767
1552636842.047013,0,0,0.004277,0.006759,0.100941
1552636842.094979,0,0,0.003931,0.006437,0.100469
1552636842.130568,0,0,0.004524,0.006759,0.100743
1552636842.148603,0,0,0.004351,0.006907,0.101016
1552636842.166396,0,0,0.003956,0.006140,0.100643
1552636842.184244,0,0,0.004252,0.006982,0.101041
1552636842.202128,0,0,0.003980,0.006363,0.100718
1552636842.219987,0,0,0.004401,0.006858,0.100842
1552636842.250175,0,0,0.003881,0.006462,0.100842
1552636842.294753,0,0,0.003956,0.006289,0.100767
1552636842.312942,0,0,0.004178,0.006462,0.100867
1552636842.330713,0,0,0.004079,0.006289,0.100817
1552636842.348532,0,0,0.004104,0.006313,0.100743
1552636842.366398,0,0,0.004005,0.006313,0.100941
1552636842.384283,0,0,0.003980,0.006239,0.101016
1552636842.410503,0,0,0.004055,0.006289,0.100917
1552636842.446694,0,0,0.004326,0.006610,0.101016
1552636842.464854,0,0,0.003980,0.012602,0.101140
1552636842.482609,0,0,0.004351,0.006462,0.101140
1552636842.501405,0,0,0.004228,0.006016,0.101215
1552636842.519392,0,0,0.003980,0.007551,0.101140
1552636842.537228,0,0,0.003535,0.007081,0.100941
1552636842.584884,0,0,0.004326,0.006561,0.101115
1552636842.621071,0,0,0.004401,0.000322,0.101016
1552636842.639863,0,0,0.003535,0.005447,0.100743
1552636842.657624,0,0,0.005118,0.006982,0.100693
1552636842.676009,0,0,0.004153,0.006214,0.100743
1552636842.693805,0,0,0.004376,0.006759,0.100941
1552636842.712083,0,0,0.003560,0.006363,0.101066
1552636842.730397,0,0,0.004623,0.006289,0.101240
1552636842.750560,0,0,0.004005,0.006363,0.100246
1552636842.794769,0,0,0.004277,0.006536,0.101240
1552636842.812493,0,0,0.004252,0.006140,0.100345
1552636842.830218,0,0,0.004104,0.006313,0.101389
1552636842.847535,0,0,0.004104,0.007031,0.101140
1552636842.864946,0,0,0.004203,0.005917,0.100047
1552636842.882793,0,0,0.004104,0.006833,0.100593
1552636842.901201,0,0,0.004129,0.006313,0.101314
1552636842.919611,0,0,0.004475,0.006610,0.100395
1552636842.946732,0,0,0.004005,0.006660,0.101438
1552636842.964635,0,0,0.004623,0.006833,0.101090
1552636842.982199,0,0,0.003708,0.006883,0.100370
1552636843.000099,0,0,0.004500,0.012057,0.100817
1552636843.017779,0,0,0.003906,0.006289,0.100718
1552636843.035872,0,0,0.004920,0.007898,0.101737
1552636843.053988,0,0,0.003313,0.005645,0.099749
1552636843.090237,0,0,0.005365,0.007724,0.101612
1552636843.125465,0,0,0.004203,0.006734,0.100743
1552636843.143089,0,0,0.004475,0.006388,0.101935
1552636843.161098,0,0,0.003980,0.006338,0.099724
1552636843.178287,0,0,0.004821,0.006734,0.099947
1552636843.196287,0,0,0.003511,0.006462,0.101911
1552636843.213628,0,0,0.004895,0.006808,0.100444
1552636843.232146,0,0,0.004153,0.006412,0.100767
1552636843.267970,0,0,0.004277,0.006363,0.101165
1552636843.285336,0,0,0.004129,0.006586,0.101264
1552636843.302678,0,0,0.003956,0.006610,0.100917
1552636843.319990,0,0,0.004178,0.006090,0.100668
1552636843.337296,0,0,0.004228,0.006734,0.101190
1552636843.354536,0,0,0.004153,0.006487,0.101115
1552636843.371768,0,0,0.004178,0.006858,0.100867
1552636843.398560,0,0,0.004401,0.006734,0.100792
1552636843.433744,0,0,0.004104,0.006660,0.101090
1552636843.451121,0,0,0.004079,0.006363,0.100618
1552636843.468405,0,0,0.004277,0.006610,0.100892
1552636843.485685,0,0,0.004055,0.006610,0.101090
1552636843.508685,0,0,0.004252,0.006388,0.100743
1552636843.526442,0,0,0.004178,0.006462,0.100693
1552636843.574477,0,0,0.004178,0.006511,0.100718
1552636843.592827,0,0,0.004129,0.006561,0.100917
1552636843.610965,0,0,0.004228,0.006586,0.100842
1552636843.629636,0,0,0.004252,0.006586,0.100941
1552636843.647614,0,0,0.004005,0.006289,0.100917
1552636843.665509,0,0,0.004153,0.006462,0.100892
1552636843.683922,0,0,0.004104,0.006561,0.100941
1552636843.712337,0,0,0.004178,0.006511,0.100792
1552636843.755163,0,0,0.004104,0.006462,0.100817
1552636843.773262,0,0,0.004228,0.006412,0.100693
1552636843.791194,0,0,0.004252,0.006487,0.100817
1552636843.809823,0,0,0.004104,0.006511,0.100792
1552636843.827752,0,0,0.004203,0.006511,0.100867
1552636843.845670,0,0,0.004104,0.006610,0.100892
1552636843.875354,0,0,0.004203,0.006511,0.100941
1552636843.907117,0,0,0.004129,0.006437,0.100867
1552636843.925888,0,0,0.004252,0.006561,0.100743
1552636843.943822,0,0,0.004104,0.006412,0.100817
1552636843.961806,0,0,0.004302,0.006586,0.100842
1552636843.980399,0,0,0.004005,0.006388,0.101016
1552636843.998367,0,0,0.004228,0.006586,0.100867
1552636844.044080,0,0,0.004129,0.006536,0.100892
1552636844.080359,0,0,0.004203,0.006635,0.100693
1552636844.098783,0,0,0.004203,0.006388,0.100817
1552636844.126841,0,0,0.004079,0.006536,0.100693
1552636844.144655,0,0,0.004030,0.006610,0.100867
1552636844.162547,0,0,0.004079,0.006412,0.100917
1552636844.180475,0,0,0.004302,0.006511,0.100743
1552636844.198526,0,0,0.004104,0.006487,0.100817
1552636844.236959,0,0,0.004252,0.006536,0.100892
1552636844.257381,0,0,0.004178,0.006561,0.100892
1552636844.287065,0,0,0.004178,0.006412,0.100867
1552636844.305102,0,0,0.004079,0.006437,0.100941
1552636844.323109,0,0,0.004203,0.006586,0.100792
1552636844.341045,0,0,0.004055,0.006487,0.100966
1552636844.359011,0,0,0.004425,0.006462,0.100569
1552636844.380421,0,0,0.004153,0.006437,0.100892
1552636844.416803,0,0,0.003956,0.006487,0.100966
1552636844.451821,0,0,0.004252,0.006536,0.100792
1552636844.469524,0,0,0.004055,0.006635,0.100991
1552636844.486833,0,0,0.004129,0.006189,0.100867
1552636844.504095,0,0,0.004302,0.006536,0.101066
1552636844.521415,0,0,0.004079,0.006536,0.101066
1552636844.538698,0,0,0.004326,0.006388,0.100618
1552636844.557453,0,0,0.004178,0.006412,0.100966
1552636844.592731,0,0,0.004277,0.006462,0.100668
1552636844.610353,0,0,0.004129,0.006437,0.101165
1552636844.627949,0,0,0.004376,0.007081,0.100817
1552636844.645344,0,0,0.003783,0.011537,0.100966
1552636844.662707,0,0,0.004846,0.007130,0.101066
1552636844.679991,0,0,0.003857,0.000173,0.100892
1552636844.699246,0,0,0.004203,0.007007,0.100842
1552636844.734428,0,0,0.003980,0.006511,0.100867
1552636844.752004,0,0,0.003956,0.006660,0.100867
1552636844.769347,0,0,0.004203,0.006338,0.100941
1552636844.786618,0,0,0.004030,0.006536,0.100767
1552636844.803904,0,0,0.004228,0.006363,0.100917
1552636844.821210,0,0,0.004203,0.006511,0.100743
1552636844.839980,0,0,0.004104,0.006610,0.100842
1552636844.875282,0,0,0.004055,0.006437,0.100917
1552636844.892650,0,0,0.004153,0.006536,0.100917
1552636844.909948,0,0,0.004153,0.006289,0.100991
1552636844.927350,0,0,0.004277,0.006610,0.100892
1552636844.944585,0,0,0.004228,0.006536,0.100867
1552636844.961892,0,0,0.004005,0.006487,0.100941
1552636844.980838,0,0,0.004104,0.006734,0.100867
1552636844.998170,0,0,0.004252,0.006239,0.100668
1552636845.027164,0,0,0.004228,0.006610,0.100941
1552636845.044655,0,0,0.004252,0.006462,0.100966
1552636845.061998,0,0,0.004005,0.006487,0.100842
1552636845.079326,0,0,0.004104,0.006412,0.100792
1552636845.096714,0,0,0.004005,0.006511,0.100718
1552636845.118451,0,0,0.004475,0.005472,0.100494
1552636845.156749,0,0,0.003609,0.000173,0.100966
1552636845.174928,0,0,0.004549,0.006660,0.101264
1552636845.193010,0,0,0.004104,0.006660,0.101041
1552636845.210863,0,0,0.003906,0.006586,0.100519
1552636845.228881,0,0,0.003881,0.006313,0.100718
1552636845.246853,0,0,0.003931,0.005942,0.101041
1552636845.265013,0,0,0.004203,0.006586,0.100917
1552636845.283660,0,0,0.004351,0.007675,0.100792
1552636845.324945,0,0,0.003733,0.007353,0.101289
1552636845.343151,0,0,0.004104,0.006264,0.100494
1552636845.361236,0,0,0.004376,0.006289,0.100469
1552636845.379296,0,0,0.003807,0.006363,0.100718
1552636845.397369,0,0,0.004376,0.006635,0.100693
1552636845.415179,0,0,0.004079,0.006462,0.100966
1552636845.433023,0,0,0.004129,0.006363,0.101240
1552636845.454704,0,0,0.003956,0.006635,0.101016
1552636845.493511,0,0,0.003980,0.007353,0.100917
1552636845.511682,0,0,0.003708,0.011884,0.101041
1552636845.529792,0,0,0.004846,0.006808,0.101215
1552636845.547837,0,0,0.003931,0.006214,0.101165
1552636845.565767,0,0,0.004450,0.006536,0.100743
1552636845.583660,0,0,0.003980,0.006858,0.101090
1552636845.601611,0,0,0.004302,0.006239,0.100743
1552636845.620400,0,0,0.004079,0.006635,0.100569
1552636845.640559,0,0,0.004277,0.006313,0.100917
1552636845.684825,0,0,0.004277,0.006412,0.101041
1552636845.702935,0,0,0.004153,0.006586,0.100817
1552636845.721030,0,0,0.004079,0.006363,0.100668
1552636845.739066,0,0,0.004104,0.006437,0.100817
1552636845.757188,0,0,0.004030,0.006610,0.100693
1552636845.775133,0,0,0.004401,0.006709,0.100767
1552636845.794221,0,0,0.003634,0.006734,0.100420
1552636845.835448,0,0,0.005192,0.007106,0.099550
1552636845.854098,0,0,0.003560,0.006239,0.100420
1552636845.872317,0,0,0.004079,0.006907,0.095623
1552636845.890341,0,0,0.003733,0.004580,0.099997
1552636845.908254,0,0,0.005216,0.008343,0.100072
1552636845.926251,0,0,0.003511,0.006041,0.101960
1552636845.944145,0,0,0.004623,0.006883,0.100668
1552636845.963350,0,0,0.004030,0.012305,0.100767
1552636846.001684,0,0,0.004252,0.006264,0.101066
1552636846.037758,0,0,0.004005,0.006685,0.101041
1552636846.056594,0,0,0.004005,0.006239,0.101190
1552636846.074683,0,0,0.004425,0.006883,0.100767
1552636846.092603,0,0,0.003906,0.006685,0.100941
1552636846.110689,0,0,0.004153,0.006462,0.101165
1552636846.129024,0,0,0.003931,0.006536,0.100718
1552636846.173438,0,0,0.004277,0.006264,0.101264
1552636846.209508,0,0,0.004178,0.007031,0.100668
1552636846.228058,0,0,0.003758,0.006685,0.101314
1552636846.246058,0,0,0.004376,0.005942,0.100991
1552636846.263967,0,0,0.004104,0.006759,0.100892
1552636846.281960,0,0,0.003857,0.000099,0.100842
1552636846.300038,0,0,0.004920,0.007353,0.100668
1552636846.321302,0,0,0.002769,0.006214,0.100593
1552636846.374832,0,0,0.004178,0.006363,0.100767
1552636846.410903,0,0,0.003906,0.006487,0.100917
1552636846.429062,0,0,0.003956,0.006610,0.100494
1552636846.447145,0,0,0.004450,0.000099,0.100966
1552636846.465119,0,0,0.003931,0.006412,0.101090
1552636846.483132,0,0,0.004252,0.006709,0.100718
1552636846.501195,0,0,0.004228,0.005595,0.100718
1552636846.520182,0,0,0.003733,0.007106,0.101066
1552636846.574701,0,0,0.004376,0.006437,0.100966
1552636846.593227,0,0,0.004178,0.006586,0.101041
1552636846.611272,0,0,0.004203,0.012676,0.100668
1552636846.629283,0,0,0.004500,0.006388,0.100817
1552636846.647294,0,0,0.004203,0.006487,0.100941
1552636846.665355,0,0,0.004079,0.006115,0.100668
1552636846.686551,0,0,0.004129,0.006883,0.100917
1552636846.722715,0,0,0.003486,0.005769,0.101016
1552636846.758640,0,0,0.004870,0.007724,0.101215
1552636846.776972,0,0,0.004846,0.007254,0.101090
1552636846.795130,0,0,0.003189,0.006610,0.101264
1552636846.813119,0,0,0.004722,0.005199,0.100047
1552636846.831032,0,0,0.003708,0.006487,0.100892
1552636846.849078,0,0,0.003609,0.006536,0.101364
1552636846.867851,0,0,0.004673,0.007279,0.101066
1552636846.925106,0,0,0.003857,0.006784,0.100345
1552636846.961081,0,0,0.004252,0.006437,0.101289
1552636846.979990,0,0,0.003783,0.010126,0.099624
1552636846.998541,0,0,0.004796,0.004580,0.103178
1552636847.017110,0,0,0.004524,0.005571,0.099177
1552636847.041372,0,0,0.004055,0.006388,0.098755
1552636847.060112,0,0,0.003956,0.005967,0.102656
1552636847.079382,0,0,0.004129,0.005793,0.099997
1552636847.129395,0,0,0.004500,0.006784,0.101016
1552636847.147250,0,0,0.003906,0.012552,0.101066
1552636847.165054,0,0,0.003609,0.006536,0.100718
1552636847.187694,0,0,0.004129,0.006907,0.099848
1552636847.205674,0,0,0.004500,0.006388,0.100917
1552636847.227483,0,0,0.003832,0.005694,0.101339
1552636847.267324,0,0,0.004425,0.006660,0.100345
1552636847.285455,0,0,0.004055,0.006511,0.101066
1552636847.303360,0,0,0.004030,0.006561,0.101165
1552636847.321277,0,0,0.004228,0.006709,0.100693
1552636847.339275,0,0,0.004376,0.006536,0.100941
1552636847.357207,0,0,0.004129,0.006363,0.101463
1552636847.377173,0,0,0.004079,0.006487,0.100842
1552636847.434954,0,0,0.004153,0.006487,0.100842
1552636847.453084,0,0,0.004153,0.006536,0.100817
1552636847.471278,0,0,0.004104,0.006388,0.100966
1552636847.489321,0,0,0.004005,0.006561,0.100966
1552636847.507269,0,0,0.004277,0.006610,0.100743
1552636847.525126,0,0,0.004277,0.006734,0.100718
1552636847.542993,0,0,0.004228,0.006487,0.100991
1552636847.572742,0,0,0.004055,0.006289,0.101090
1552636847.607201,0,0,0.004178,0.006586,0.100867
1552636847.626985,0,0,0.004228,0.006586,0.100817
1552636847.644722,0,0,0.004252,0.006487,0.100792
1552636847.662672,0,0,0.004178,0.006462,0.100892
1552636847.680592,0,0,0.004228,0.006363,0.101016
1552636847.710220,0,0,0.004104,0.006536,0.100966
1552636847.754847,0,0,0.004252,0.006635,0.100991
1552636847.772886,0,0,0.004104,0.006511,0.101066
1552636847.790744,0,0,0.004005,0.006412,0.101041
1552636847.808618,0,0,0.004055,0.006536,0.100817
1552636847.826595,0,0,0.004277,0.006487,0.100743
1552636847.844419,0,0,0.004079,0.006561,0.100817
1552636847.871633,0,0,0.004104,0.006487,0.100917
1552636847.906920,0,0,0.004178,0.006586,0.101090
1552636847.925066,0,0,0.004104,0.006437,0.100892
1552636847.942914,0,0,0.004079,0.006561,0.100842
1552636847.960819,0,0,0.004302,0.006462,0.100643
1552636847.978680,0,0,0.004055,0.006487,0.101090
1552636847.996671,0,0,0.003980,0.006437,0.100743
1552636848.047196,0,0,0.004252,0.006487,0.100693
1552636848.065442,0,0,0.004178,0.006388,0.100991
1552636848.083313,0,0,0.004104,0.006561,0.100817
1552636848.101214,0,0,0.003980,0.006536,0.100917
1552636848.119231,0,0,0.004277,0.006462,0.100941
1552636848.137085,0,0,0.004055,0.006313,0.100966
1552636848.185361,0,0,0.004104,0.006437,0.100668
1552636848.221370,0,0,0.004079,0.000025,0.101190
1552636848.240041,0,0,0.004178,0.006511,0.101115
1552636848.257843,0,0,0.004277,0.006536,0.101090
1552636848.275712,0,0,0.004079,0.006388,0.100792
1552636848.293561,0,0,0.004079,0.006462,0.100693
1552636848.311461,0,0,0.003906,0.006412,0.100569
1552636848.343235,0,0,0.004178,0.006511,0.100892
1552636848.384544,0,0,0.004203,0.006437,0.100668
1552636848.402969,0,0,0.004178,0.006412,0.100693
1552636848.420940,0,0,0.004104,0.006511,0.100643
1552636848.438760,0,0,0.004178,0.006487,0.101041
1552636848.456755,0,0,0.004178,0.006437,0.100941
1552636848.474638,0,0,0.004252,0.006388,0.100917
1552636848.506112,0,0,0.004104,0.006511,0.100718
1552636848.544534,0,0,0.004178,0.006462,0.100718
1552636848.562707,0,0,0.004228,0.006363,0.100817
1552636848.580604,0,0,0.004228,0.006363,0.100991
1552636848.598424,0,0,0.004104,0.006462,0.101165
1552636848.616277,0,0,0.004104,0.006487,0.101016
1552636848.634135,0,0,0.004079,0.006511,0.100817
1552636848.660353,0,0,0.004055,0.006536,0.100593
1552636848.696175,0,0,0.004129,0.006462,0.101016
1552636848.714156,0,0,0.004055,0.006189,0.100743
1552636848.731999,0,0,0.004252,0.006734,0.100917
1552636848.749691,0,0,0.003980,0.012651,0.100941
1552636848.767790,0,0,0.004055,0.005892,0.100767
1552636848.785637,0,0,0.004673,0.006462,0.101264
1552636848.818113,0,0,0.003609,0.006289,0.100668
1552636848.846883,0,0,0.004104,0.006388,0.100842
1552636848.865243,0,0,0.004376,0.006165,0.100469
1552636848.883128,0,0,0.004252,0.006709,0.101289
1552636848.900941,0,0,0.004277,0.006685,0.101066
1552636848.919129,0,0,0.004228,0.006363,0.100643
1552636848.937099,0,0,0.004228,0.006487,0.100867
1552636848.989436,0,0,0.003931,0.007130,0.100643
1552636849.007763,0,0,0.003338,0.005991,0.101314
1552636849.027081,0,0,0.004500,0.000025,0.099624
1552636849.048907,0,0,0.003758,0.006586,0.101041
1552636849.067064,0,0,0.003708,0.006313,0.101587
1552636849.085461,0,0,0.004401,0.007007,0.099997
1552636849.130749,0,0,0.003931,0.012230,0.100072
1552636849.166769,0,0,0.003956,0.006635,0.101314
1552636849.187900,0,0,0.004005,0.006610,0.100395
1552636849.205920,0,0,0.004425,0.006487,0.101115
1552636849.223872,0,0,0.004030,0.006487,0.100693
1552636849.244906,0,0,0.004252,0.006561,0.100767
1552636849.269097,0,0,0.004104,0.006586,0.100941
1552636849.327569,0,0,0.004129,0.006511,0.101016
1552636849.363331,0,0,0.004203,0.006462,0.100917
1552636849.384176,0,0,0.004203,0.006363,0.100643
1552636849.402107,0,0,0.004005,0.006511,0.100867
1552636849.420007,0,0,0.004252,0.006462,0.100767
1552636849.440940,0,0,0.004104,0.006635,0.100867
1552636849.464512,0,0,0.004178,0.000149,0.100941
1552636849.507314,0,0,0.004153,0.006487,0.101066
1552636849.525309,0,0,0.004228,0.006487,0.100842
1552636849.543255,0,0,0.004228,0.006388,0.100593
1552636849.563845,0,0,0.004104,0.006561,0.100743
1552636849.581903,0,0,0.004104,0.006561,0.100966
1552636849.599960,0,0,0.003832,0.006858,0.100668
1552636849.625502,0,0,0.003980,0.006462,0.100221
1552636849.664738,0,0,0.003239,0.007155,0.098605
1552636849.685363,0,0,0.003535,0.007180,0.102109
1552636849.703383,0,0,0.004524,0.006313,0.101587
1552636849.721303,0,0,0.004425,0.006808,0.099749
1552636849.741810,0,0,0.004598,0.006586,0.101786
1552636849.759758,0,0,0.003931,0.006041,0.100718
1552636849.781129,0,0,0.004153,0.006907,0.100420
1552636849.826919,0,0,0.003807,0.006165,0.101314
1552636849.844992,0,0,0.004228,0.006066,0.101240
1552636849.862954,0,0,0.003881,0.006635,0.100370
1552636849.883200,0,0,0.004104,0.006660,0.100395
1552636849.901232,0,0,0.003733,0.012156,0.101041
1552636849.919682,0,0,0.004524,0.006586,0.099997
1552636849.945231,0,0,0.004500,0.005942,0.102755
1552636849.984710,0,0,0.004500,0.006487,0.107601
1552636850.004844,0,0,0.003189,0.006189,0.100246
1552636850.023849,0,0,0.005414,0.006833,0.100221
1552636850.042372,0,0,0.003931,0.006041,0.102606
1552636850.062952,0,0,0.003659,0.006338,0.100320
1552636850.081132,0,0,0.005019,0.006586,0.101737
1552636850.099732,0,0,0.002744,0.006090,0.101861
1552636850.147135,0,0,0.004846,0.006189,0.102084
1552636850.165228,0,0,0.004228,0.006289,0.101041
1552636850.183268,0,0,0.003857,0.007700,0.099301
1552636850.203208,0,0,0.004104,0.006289,0.101786
1552636850.221263,0,0,0.003758,0.012404,0.099699
1552636850.239344,0,0,0.005019,0.006536,0.100345
1552636850.265015,0,0,0.004425,0.006388,0.102084
1552636850.304693,0,0,0.003807,0.006635,0.107527
1552636850.323726,0,0,0.003412,0.006437,0.100519
1552636850.341710,0,0,0.004747,0.006586,0.099550
1552636850.359817,0,0,0.004401,0.000050,0.101960
1552636850.377900,0,0,0.003634,0.006610,0.100494
1552636850.395805,0,0,0.004895,0.006610,0.100494
1552636850.419440,0,0,0.003659,0.006734,0.101737
1552636850.455502,0,0,0.004351,0.000347,0.101687
1552636850.493219,0,0,0.003659,0.006536,0.099475
1552636850.511274,0,0,0.003956,0.006734,0.101911
1552636850.528943,0,0,0.004153,0.006264,0.100718
1552636850.548817,0,0,0.004425,0.006784,0.100072
1552636850.566786,0,0,0.003980,0.006462,0.101339
1552636850.584737,0,0,0.004104,0.000223,0.100743
1552636850.630161,0,0,0.004030,0.012329,0.100618
1552636850.665922,0,0,0.003066,0.005298,0.101090
1552636850.686151,0,0,0.004203,0.006759,0.100668
1552636850.704186,0,0,0.004252,0.007328,0.101090
1552636850.722121,0,0,0.003634,0.005571,0.100469
1552636850.742049,0,0,0.004549,0.006511,0.101190
1552636850.785254,0,0,0.004277,0.006437,0.100693
1552636850.821535,0,0,0.003733,0.006214,0.100544
1552636850.839704,0,0,0.003881,0.006313,0.099972
1552636850.857862,0,0,0.004425,0.006808,0.101364
1552636850.875625,0,0,0.003239,0.005967,0.100420
1552636850.895414,0,0,0.004673,0.006907,0.100345
1552636850.913393,0,0,0.003609,0.000099,0.101637
1552636850.941029,0,0,0.004574,0.006462,0.100544
1552636850.984467,0,0,0.003609,0.006932,0.100743
1552636851.002439,0,0,0.003486,0.005670,0.100718
1552636851.020840,0,0,0.004450,0.006437,0.100892
1552636851.039584,0,0,0.004277,0.006883,0.100792
1552636851.057574,0,0,0.004697,0.006858,0.101165
1552636851.075445,0,0,0.003214,0.005967,0.100395
1552636851.126287,0,0,0.004722,0.007155,0.101513
1552636851.156852,0,0,0.004549,0.006734,0.102408
1552636851.174827,0,0,0.003461,0.006264,0.099798
1552636851.192774,0,0,0.004771,0.007254,0.099624
1552636851.210661,0,0,0.004055,0.006388,0.102159
1552636851.228513,0,0,0.003634,0.005744,0.100917
1552636851.246401,0,0,0.004821,0.006412,0.099127
1552636851.296197,0,0,0.004005,0.006214,0.099699
1552636851.314258,0,0,0.004598,0.006090,0.101886
1552636851.332088,0,0,0.003362,0.006858,0.101090
1552636851.349931,0,0,0.004401,0.006388,0.099923
1552636851.367858,0,0,0.004228,0.006313,0.101389
1552636851.385688,0,0,0.003832,0.005670,0.100792
1552636851.418768,0,0,0.004302,0.007304,0.100643
1552636851.446880,0,0,0.003906,0.006487,0.101289
1552636851.465044,0,0,0.004277,0.006784,0.101016
1552636851.483567,0,0,0.004277,0.006239,0.100966
1552636851.501492,0,0,0.003980,0.006536,0.101041
1552636851.519187,0,0,0.004228,0.006536,0.100544
1552636851.536951,0,0,0.004104,0.006610,0.100519
1552636851.586364,0,0,0.004178,0.006610,0.100817
1552636851.604492,0,0,0.004104,0.006289,0.101066
1552636851.622298,0,0,0.004129,0.006363,0.101066
1552636851.640821,0,0,0.004079,0.006536,0.101115
1552636851.658689,0,0,0.004079,0.006536,0.100867
1552636851.676561,0,0,0.004376,0.006734,0.100917
1552636851.728992,0,0,0.004129,0.006363,0.100618
1552636851.764744,0,0,0.004178,0.006610,0.100817
1552636851.782743,0,0,0.004104,0.006462,0.100767
1552636851.800844,0,0,0.003980,0.006635,0.100991
1552636851.818760,0,0,0.004129,0.006511,0.100693
1552636851.838991,0,0,0.004178,0.006313,0.100867
1552636851.880674,0,0,0.004104,0.006536,0.101165
1552636851.899459,0,0,0.004648,0.007081,0.101140
1552636851.926881,0,0,0.004055,0.005967,0.100718
1552636851.944561,0,0,0.004005,0.005991,0.100519
1552636851.962525,0,0,0.004129,0.006685,0.101339
1552636851.980428,0,0,0.003931,0.006115,0.100295
1552636851.998149,0,0,0.004401,0.006932,0.101314
1552636852.030438,0,0,0.004500,0.006685,0.101190
1552636852.075283,0,0,0.003832,0.006833,0.100718
1552636852.093405,0,0,0.003832,0.006437,0.100196
1552636852.111285,0,0,0.005019,0.006586,0.101240
1552636852.129413,0,0,0.003659,0.006412,0.101861
1552636852.147505,0,0,0.004153,0.006462,0.100370
1552636852.165276,0,0,0.004524,0.006685,0.101289
1552636852.210265,0,0,0.004648,0.006586,0.100171
1552636852.228042,0,0,0.003857,0.006511,0.100917
1552636852.257021,0,0,0.003931,0.006412,0.100519
1552636852.274868,0,0,0.004648,0.006561,0.101637
1552636852.292705,0,0,0.003733,0.006561,0.101041
1552636852.310631,0,0,0.004722,0.006388,0.100569
1552636852.328524,0,0,0.004005,0.006388,0.101016
1552636852.377074,0,0,0.003634,0.012651,0.100618
1552636852.412727,0,0,0.004648,0.000074,0.101190
1552636852.431040,0,0,0.004302,0.006685,0.101115
1552636852.448789,0,0,0.004079,0.006511,0.100569
1552636852.466804,0,0,0.004005,0.006041,0.100593
1552636852.484679,0,0,0.004104,0.007106,0.100966
1552636852.502687,0,0,0.003758,0.006189,0.100569
1552636852.529802,0,0,0.003980,0.006759,0.101264
1552636852.574728,0,0,0.004129,0.006313,0.100618
1552636852.592628,0,0,0.004203,0.006610,0.100917
1552636852.610545,0,0,0.004055,0.006388,0.100643
1552636852.628417,0,0,0.004153,0.006412,0.100842
1552636852.646268,0,0,0.004104,0.006561,0.100892
1552636852.664058,0,0,0.004079,0.006561,0.100966
1552636852.691147,0,0,0.004153,0.006586,0.100917
1552636852.726837,0,0,0.004055,0.006388,0.100792
1552636852.745064,0,0,0.004153,0.006511,0.100991
1552636852.762954,0,0,0.004079,0.006363,0.101041
1552636852.780770,0,0,0.004079,0.006635,0.100941
1552636852.798672,0,0,0.004104,0.006536,0.100892
1552636852.816668,0,0,0.004079,0.006511,0.100693
1552636852.839803,0,0,0.004104,0.006487,0.100867
1552636852.884588,0,0,0.004203,0.006536,0.100991
1552636852.920284,0,0,0.004178,0.006511,0.100867
1552636852.938749,0,0,0.004030,0.006561,0.101115
1552636852.956682,0,0,0.004104,0.006586,0.100842
1552636852.974495,0,0,0.004055,0.006388,0.100892
1552636852.992410,0,0,0.004326,0.006536,0.100792
1552636853.010707,0,0,0.004104,0.006487,0.100991
1552636853.057127,0,0,0.004129,0.006437,0.100817
1552636853.092891,0,0,0.004203,0.006388,0.100941
1552636853.111232,0,0,0.004055,0.006511,0.100867
1552636853.129196,0,0,0.004079,0.006487,0.100966
1552636853.147005,0,0,0.004351,0.006536,0.100941
1552636853.164834,0,0,0.004030,0.006511,0.100842
1552636853.182687,0,0,0.003956,0.006264,0.100842
1552636853.209824,0,0,0.004203,0.006313,0.100917
1552636853.254732,0,0,0.004153,0.006388,0.100941
1552636853.272833,0,0,0.004104,0.006388,0.100892
1552636853.290677,0,0,0.003980,0.006536,0.100817
1552636853.308529,0,0,0.004079,0.006437,0.100817
1552636853.326546,0,0,0.004153,0.006561,0.100817
1552636853.344362,0,0,0.004178,0.006487,0.100917
1552636853.368615,0,0,0.004129,0.006437,0.100991
1552636853.404252,0,0,0.004079,0.006561,0.100892
1552636853.440158,0,0,0.004129,0.006388,0.100767
1552636853.458303,0,0,0.004030,0.006412,0.100767
1552636853.476223,0,0,0.004104,0.006412,0.100867
1552636853.494069,0,0,0.004104,0.006412,0.101066
1552636853.511940,0,0,0.004129,0.006635,0.100991
1552636853.529909,0,0,0.004203,0.006437,0.100792
1552636853.558536,0,0,0.004055,0.006437,0.100867
1552636853.594574,0,0,0.004228,0.006363,0.100991
1552636853.615030,0,0,0.004153,0.006487,0.100991
1552636853.633577,0,0,0.004326,0.006511,0.100817
1552636853.651617,0,0,0.004129,0.006487,0.100941
1552636853.672246,0,0,0.004252,0.006412,0.100718
1552636853.690563,0,0,0.004079,0.006487,0.100718
1552636853.715858,0,0,0.004079,0.006462,0.100767
1552636853.754747,0,0,0.004030,0.006487,0.100966
1552636853.772603,0,0,0.004104,0.006462,0.100842
1552636853.790306,0,0,0.004129,0.006610,0.100842
1552636853.808132,0,0,0.004153,0.006536,0.100941
1552636853.826022,0,0,0.004129,0.006487,0.100842
1552636853.843926,0,0,0.004129,0.006462,0.100892
1552636853.875733,0,0,0.004104,0.006536,0.100991
1552636853.906916,0,0,0.004030,0.006462,0.100817
1552636853.924790,0,0,0.004104,0.006487,0.100917
1552636853.942941,0,0,0.004153,0.006462,0.100842
1552636853.960831,0,0,0.004178,0.006363,0.100991
1552636853.978633,0,0,0.004129,0.006412,0.100817
1552636853.996471,0,0,0.004153,0.006610,0.100767
1552636854.047175,0,0,0.004228,0.006709,0.100892
1552636854.065406,0,0,0.004228,0.006536,0.100966
1552636854.083326,0,0,0.004252,0.006635,0.101016
1552636854.101162,0,0,0.004079,0.006561,0.100867
1552636854.119007,0,0,0.004079,0.006487,0.100743
1552636854.136892,0,0,0.004178,0.006487,0.100941
1552636854.161074,0,0,0.004228,0.006462,0.100842
1552636854.214757,0,0,0.004153,0.006586,0.100792
1552636854.250534,0,0,0.004079,0.006338,0.100842
1552636854.268775,0,0,0.004203,0.006388,0.100718
1552636854.286594,0,0,0.004005,0.006289,0.100966
1552636854.304417,0,0,0.004129,0.006363,0.100966
1552636854.322278,0,0,0.004153,0.006561,0.101140
1552636854.340207,0,0,0.004079,0.006635,0.100991
1552636854.362099,0,0,0.004079,0.006462,0.100842
1552636854.404876,0,0,0.004030,0.006487,0.100743
1552636854.440516,0,0,0.004055,0.006487,0.100966
1552636854.458935,0,0,0.004153,0.006610,0.100867
1552636854.476838,0,0,0.004153,0.006363,0.100767
1552636854.494661,0,0,0.004129,0.006338,0.100991
1552636854.512496,0,0,0.004129,0.006388,0.100991
1552636854.530409,0,0,0.004055,0.006338,0.100817
1552636854.552005,0,0,0.004079,0.006388,0.100842
1552636854.604905,0,0,0.003980,0.006462,0.100966
1552636854.622988,0,0,0.003956,0.006511,0.100991
1552636854.640967,0,0,0.004104,0.006388,0.100842
1552636854.658868,0,0,0.004030,0.006437,0.100917
1552636854.676812,0,0,0.004005,0.006437,0.100941
1552636854.694633,0,0,0.004129,0.006462,0.100792
1552636854.712466,0,0,0.004228,0.006511,0.100767
1552636854.731098,0,0,0.004079,0.006536,0.100941
1552636854.797005,0,0,0.004030,0.006487,0.100892
1552636854.832741,0,0,0.004104,0.006511,0.100941
1552636854.851079,0,0,0.003980,0.006487,0.100941
1552636854.868975,0,0,0.004030,0.006412,0.100917
1552636854.886857,0,0,0.004079,0.006487,0.101066
1552636854.904708,0,0,0.004104,0.000124,0.100817
1552636854.922601,0,0,0.003956,0.006412,0.100817
1552636854.941334,0,0,0.004030,0.006412,0.100892
1552636854.987019,0,0,0.004005,0.006437,0.100941
1552636855.005008,0,0,0.003956,0.006388,0.100718
1552636855.023347,0,0,0.004005,0.006462,0.100842
1552636855.041893,0,0,0.004153,0.006338,0.101066
1552636855.060027,0,0,0.004153,0.006487,0.100991
1552636855.077966,0,0,0.004129,0.006388,0.100991
1552636855.126702,0,0,0.004104,0.006363,0.100743
1552636855.144763,0,0,0.004079,0.006462,0.101041
1552636855.162687,0,0,0.004030,0.006388,0.100817
1552636855.180407,0,0,0.003931,0.006412,0.100941
1552636855.198105,0,0,0.003881,0.006487,0.101140
1552636855.215960,0,0,0.003931,0.012676,0.100618
1552636855.249293,0,0,0.004252,0.006536,0.101090
1552636855.277206,0,0,0.004203,0.006264,0.101016
1552636855.295698,0,0,0.004104,0.006487,0.100917
1552636855.313627,0,0,0.004030,0.006264,0.100767
1552636855.331993,0,0,0.003956,0.006511,0.101016
1552636855.349719,0,0,0.003956,0.006239,0.100817
1552636855.368439,0,0,0.004055,0.006363,0.100693
1552636855.390625,0,0,0.004079,0.000124,0.100519
1552636855.435132,0,0,0.004203,0.006660,0.100767
1552636855.453214,0,0,0.004079,0.006437,0.100817
1552636855.470627,0,0,0.004153,0.006487,0.101041
1552636855.488659,0,0,0.004252,0.006536,0.101016
1552636855.505875,0,0,0.004203,0.006511,0.101115
1552636855.523459,0,0,0.004178,0.006289,0.101066
1552636855.540732,0,0,0.004252,0.006437,0.101041
1552636855.558815,0,0,0.004055,0.006586,0.100867
1552636855.595114,0,0,0.004277,0.006685,0.101115
1552636855.612992,0,0,0.004178,0.006264,0.100917
1552636855.630305,0,0,0.004178,0.006437,0.100867
1552636855.648159,0,0,0.004228,0.006462,0.100569
1552636855.665371,0,0,0.004450,0.006685,0.100643
1552636855.683016,0,0,0.004771,0.006808,0.101165
1552636855.700294,0,0,0.004475,0.006907,0.101115
1552636855.718572,0,0,0.004475,0.006957,0.100618
1552636855.757084,0,0,0.004524,0.006660,0.101115
1552636855.774574,0,0,0.004178,0.006734,0.100743
1552636855.791964,0,0,0.003881,0.006363,0.101041
1552636855.809272,0,0,0.003436,0.006264,0.101712
1552636855.826612,0,0,0.004178,0.007427,0.101662
1552636855.843855,0,0,0.005167,0.007353,0.101115
1552636855.861115,0,0,0.004648,0.006932,0.100171
1552636855.887793,0,0,0.004648,0.006907,0.100569
1552636855.916359,0,0,0.004747,0.007031,0.100295
1552636855.933835,0,0,0.004475,0.006784,0.100618
1552636855.951084,0,0,0.004524,0.006487,0.101364
1552636855.968355,0,0,0.004228,0.006487,0.101215
1552636855.985665,0,0,0.004623,0.007403,0.100569
1552636856.003027,0,0,0.004747,0.007229,0.100320
1552636856.029833,0,0,0.004598,0.006883,0.101165
1552636856.064957,0,0,0.004079,0.007007,0.101215
1552636856.082544,0,0,0.004425,0.006808,0.101264
1552636856.099886,0,0,0.004598,0.006808,0.100618
1552636856.117146,0,0,0.004500,0.006982,0.100618
1552636856.134455,0,0,0.004500,0.007007,0.100668
1552636856.152062,0,0,0.004203,0.006808,0.101016
1552636856.180248,0,0,0.004623,0.006907,0.100842
1552636856.215953,0,0,0.004524,0.006363,0.101016
1552636856.233955,0,0,0.004326,0.006808,0.101115
1552636856.251962,0,0,0.004500,0.007031,0.100792
1552636856.269775,0,0,0.004401,0.007180,0.100569
1552636856.287585,0,0,0.004153,0.006858,0.100718
1552636856.305511,0,0,0.004747,0.006734,0.100941
1552636856.334261,0,0,0.004500,0.006759,0.100792
1552636856.367913,0,0,0.004030,0.007007,0.101190
1552636856.385825,0,0,0.004549,0.007081,0.101115
1552636856.404159,0,0,0.005019,0.007353,0.100767
1552636856.422020,0,0,0.004203,0.006511,0.100817
1552636856.440381,0,0,0.004598,0.006982,0.100743
1552636856.458118,0,0,0.004524,0.007007,0.100569
1552636856.477209,0,0,0.004796,0.006808,0.100767
1552636856.524203,0,0,0.004302,0.006462,0.100792
1552636856.541646,0,0,0.004623,0.007056,0.101041
1552636856.559357,0,0,0.004574,0.006511,0.101090
1552636856.576670,0,0,0.004500,0.007007,0.101016
1552636856.594131,0,0,0.004351,0.006734,0.100743
1552636856.611930,0,0,0.003931,0.006759,0.101140
1552636856.629650,0,0,0.004401,0.007254,0.100966
1552636856.649347,0,0,0.004351,0.006858,0.100494
1552636856.685003,0,0,0.004648,0.007081,0.101066
1552636856.702400,0,0,0.004450,0.006858,0.100917
1552636856.720089,0,0,0.004524,0.006883,0.101066
1552636856.737417,0,0,0.004524,0.007031,0.100668
1552636856.754875,0,0,0.004549,0.006759,0.100718
1552636856.772660,0,0,0.004500,0.006858,0.100867
1552636856.791393,0,0,0.004425,0.006858,0.101090
1552636856.827795,0,0,0.004697,0.006784,0.100743
1552636856.845499,0,0,0.004425,0.006808,0.100643
1552636856.862671,0,0,0.004549,0.006685,0.100792
1552636856.880232,0,0,0.004425,0.006784,0.100991
1552636856.897536,0,0,0.004524,0.006883,0.100668
1552636856.914972,0,0,0.004351,0.006858,0.100643
1552636856.934144,0,0,0.004598,0.006858,0.100643
1552636856.969234,0,0,0.004425,0.006759,0.101016
1552636856.986639,0,0,0.004500,0.006883,0.100892
1552636857.004357,0,0,0.004524,0.006709,0.100842
1552636857.022324,0,0,0.004401,0.007007,0.100718
1552636857.040284,0,0,0.004351,0.006982,0.100966
1552636857.057610,0,0,0.004549,0.006883,0.100867
1552636857.076589,0,0,0.004549,0.006907,0.100643
1552636857.112580,0,0,0.004475,0.006759,0.100867
1552636857.148201,0,0,0.004475,0.006759,0.100917
1552636857.166972,0,0,0.004524,0.006784,0.100792
1552636857.184741,0,0,0.004648,0.006858,0.100817
1552636857.203045,0,0,0.004425,0.006957,0.100842
1552636857.220774,0,0,0.004425,0.006932,0.100941
1552636857.239038,0,0,0.004252,0.006858,0.100917
1552636857.261250,0,0,0.004500,0.006883,0.100718
1552636857.296895,0,0,0.004598,0.006883,0.100917
1552636857.332696,0,0,0.004475,0.006932,0.100941
1552636857.350639,0,0,0.004401,0.006784,0.100618
1552636857.368577,0,0,0.004401,0.006907,0.100842
1552636857.386462,0,0,0.004277,0.006982,0.101016
1552636857.404448,0,0,0.004524,0.006808,0.100917
1552636857.422365,0,0,0.004697,0.006635,0.100569
1552636857.441534,0,0,0.004524,0.006709,0.100444
1552636857.483042,0,0,0.004450,0.007056,0.101190
1552636857.501377,0,0,0.004623,0.007081,0.101066
1552636857.519588,0,0,0.004722,0.006858,0.100767
1552636857.537580,0,0,0.004549,0.006759,0.100569
1552636857.555446,0,0,0.004351,0.006808,0.100792
1552636857.573391,0,0,0.004376,0.006709,0.100991
1552636857.591054,0,0,0.004500,0.006907,0.100917
1552636857.613433,0,0,0.004475,0.006883,0.100718
1552636857.649083,0,0,0.004598,0.006957,0.101115
1552636857.684948,0,0,0.004425,0.006685,0.100668
1552636857.702868,0,0,0.004425,0.006784,0.100544
1552636857.720736,0,0,0.004673,0.006907,0.100842
1552636857.738623,0,0,0.004697,0.006883,0.100941
1552636857.756473,0,0,0.004524,0.006907,0.100941
1552636857.774431,0,0,0.004401,0.006784,0.100867
1552636857.796807,0,0,0.004401,0.006982,0.100842
1552636857.834806,0,0,0.004747,0.006808,0.100767
1552636857.853075,0,0,0.004549,0.006784,0.100892
1552636857.871251,0,0,0.004574,0.006833,0.100618
1552636857.889217,0,0,0.004401,0.006709,0.100917
1552636857.907120,0,0,0.004401,0.006833,0.101090
1552636857.925003,0,0,0.004425,0.006833,0.100917
1552636857.942793,0,0,0.004450,0.006660,0.100693
1552636857.964930,0,0,0.004475,0.006808,0.100867
1552636858.003136,0,0,0.004425,0.006858,0.100842
1552636858.022249,0,0,0.004450,0.006808,0.101066
1552636858.041190,0,0,0.004500,0.006833,0.101066
1552636858.059143,0,0,0.004450,0.006907,0.100817
1552636858.077029,0,0,0.004648,0.006808,0.100743
1552636858.094830,0,0,0.004425,0.006808,0.100867
1552636858.112469,0,0,0.004524,0.006858,0.100842
1552636858.135343,0,0,0.004425,0.006833,0.100917
1552636858.171102,0,0,0.004500,0.007106,0.100767
1552636858.189158,0,0,0.004549,0.006734,0.100718
1552636858.216944,0,0,0.004351,0.006858,0.100892
1552636858.234735,0,0,0.004500,0.006833,0.100892
1552636858.252479,0,0,0.004500,0.006907,0.100966
1552636858.270269,0,0,0.004376,0.006808,0.101090
1552636858.288155,0,0,0.004252,0.006759,0.100917
1552636858.309875,0,0,0.004425,0.006685,0.100668
1552636858.364739,0,0,0.004524,0.007081,0.100593
1552636858.400427,0,0,0.004326,0.006957,0.101414
1552636858.418846,0,0,0.004376,0.006957,0.101016
1552636858.436799,0,0,0.004846,0.006635,0.100743
1552636858.454592,0,0,0.004475,0.006511,0.100246
1552636858.472366,0,0,0.004376,0.007081,0.100643
1552636858.490264,0,0,0.004302,0.007229,0.101090
1552636858.512091,0,0,0.004425,0.007007,0.101314
1552636858.565203,0,0,0.004524,0.006883,0.100693
1552636858.600857,0,0,0.004425,0.006784,0.101041
1552636858.619155,0,0,0.004302,0.006907,0.100842
1552636858.637019,0,0,0.004475,0.006957,0.100867
1552636858.654903,0,0,0.004574,0.007007,0.100991
1552636858.672730,0,0,0.004673,0.006858,0.101264
1552636858.690455,0,0,0.004648,0.006858,0.100767
1552636858.712259,0,0,0.004500,0.006784,0.100668
1552636858.764748,0,0,0.004450,0.006734,0.101215
1552636858.782825,0,0,0.004846,0.006907,0.100966
1552636858.800620,0,0,0.004228,0.006957,0.100593
1552636858.818515,0,0,0.004722,0.006858,0.100817
